"Time (s)","Acceleration x (m/s^2)","Acceleration y (m/s^2)","Acceleration z (m/s^2)","Absolute acceleration (m/s^2)"
2.688499866E-3,6.286926270E-2,2.664459229E-1,1.030367340E1,1.030730962E1
1.262749988E-2,5.059478760E-2,3.294648743E-1,1.029364426E1,1.029903971E1
2.256649989E-2,1.715432739E-1,4.231700134E-1,9.624984741E0,9.635809837E0
3.250549990E-2,1.749861145E-1,3.553610229E-1,9.703421631E0,9.711503125E0
4.244449991E-2,1.119671631E-1,3.246748352E-1,9.973310394E0,9.979221944E0
5.238349992E-2,1.142124939E-1,3.826043701E-1,9.895921326E0,9.903973419E0
6.232149992E-2,1.781295776E-1,3.815565491E-1,9.843081207E0,9.852084206E0
7.226049993E-2,1.011895752E-1,3.381468201E-1,9.908046112E0,9.914331060E0
8.219949994E-2,1.181044006E-1,3.433859253E-1,9.837093658E0,9.843793689E0
9.213849995E-2,1.410067749E-1,3.761677551E-1,9.841135254E0,9.849331357E0
1.020775000E-1,1.311273193E-1,3.341052246E-1,9.917925568E0,9.924417778E0
1.120165000E-1,1.261875916E-1,3.408412170E-1,9.873168640E0,9.879856023E0
1.219555000E-1,1.532812500E-1,3.549119568E-1,9.809850311E0,9.817465089E0
1.318945000E-1,1.193019104E-1,3.546125793E-1,9.892478485E0,9.899551182E0
1.418335000E-1,1.028361511E-1,3.450325012E-1,9.887838135E0,9.894390617E0
1.517725000E-1,1.296304321E-1,3.507206726E-1,9.842632141E0,9.849731799E0
1.617115000E-1,1.257385254E-1,3.661386108E-1,9.870324554E0,9.877913467E0
1.716505000E-1,1.185534668E-1,3.350033569E-1,9.872719574E0,9.879113015E0
1.815895000E-1,1.282832336E-1,3.550616455E-1,9.879455566E0,9.886666154E0
1.915285001E-1,1.404080200E-1,3.486250305E-1,9.872569885E0,9.879721148E0
2.014675001E-1,1.104702759E-1,3.526666260E-1,9.875264282E0,9.882176991E0
2.114065001E-1,1.305285645E-1,3.535647583E-1,9.857451324E0,9.864653687E0
2.213454999E-1,1.219963074E-1,3.600013733E-1,9.874216461E0,9.881529983E0
2.312844999E-1,1.234931946E-1,3.538641357E-1,9.894424438E0,9.901520356E0
2.412234999E-1,1.188528442E-1,3.553610229E-1,9.868677979E0,9.875789209E0
2.511624999E-1,1.345701599E-1,3.833528137E-1,9.852810974E0,9.861184138E0
2.611014999E-1,1.276844788E-1,3.620970154E-1,9.878856812E0,9.886315263E0
2.710404999E-1,1.236428833E-1,3.686833191E-1,9.881251831E0,9.888900480E0
2.809794999E-1,1.285826111E-1,3.520678711E-1,9.875563660E0,9.882673872E0
2.909184999E-1,1.282832336E-1,3.396437073E-1,9.873468018E0,9.880140947E0
3.008574999E-1,1.360670471E-1,3.475772095E-1,9.871522064E0,9.878576417E0
3.107965000E-1,1.335223389E-1,3.574566650E-1,9.871222687E0,9.878595083E0
3.207355000E-1,1.228944397E-1,3.544628906E-1,9.866432648E0,9.873562689E0
3.306745000E-1,1.374142456E-1,3.607498169E-1,9.866432648E0,9.873981785E0
3.406135000E-1,1.317260742E-1,3.519181824E-1,9.859696655E0,9.866854428E0
3.505525000E-1,1.309776306E-1,3.504212952E-1,9.872420197E0,9.879505593E0
3.604915000E-1,1.296304321E-1,3.412902832E-1,9.860594788E0,9.867350844E0
3.704305000E-1,1.251397705E-1,3.471281433E-1,9.862241364E0,9.869141940E0
3.803695000E-1,1.293310547E-1,3.423381042E-1,9.875563660E0,9.882341802E0
3.903085000E-1,1.182540894E-1,3.574566650E-1,9.879605255E0,9.886776992E0
4.002465000E-1,1.260379028E-1,3.625460815E-1,9.884395294E0,9.891844901E0
4.101855000E-1,1.199006653E-1,3.568579102E-1,9.889784088E0,9.896946653E0
4.201245001E-1,1.279838562E-1,3.543132019E-1,9.893226929E0,9.900396799E0
4.300635001E-1,1.284329224E-1,3.505709839E-1,9.854158173E0,9.861228540E0
4.400025001E-1,1.273851013E-1,3.619473267E-1,9.865384827E0,9.872844099E0
4.499414999E-1,1.296304321E-1,3.592529297E-1,9.857601013E0,9.864996931E0
4.598804999E-1,1.260379028E-1,3.585044861E-1,9.881850586E0,9.889154768E0
4.698194999E-1,1.312770081E-1,3.517684937E-1,9.861193542E0,9.868338908E0
4.797584999E-1,1.164578247E-1,3.496728516E-1,9.867929535E0,9.874809711E0
4.896974999E-1,1.291813660E-1,3.513194275E-1,9.888287201E0,9.895369469E0
4.996364999E-1,1.374142456E-1,3.489244080E-1,9.882000275E0,9.889113223E0
5.095754999E-1,1.285826111E-1,3.637435913E-1,9.868677979E0,9.876216276E0
5.195144999E-1,1.372645569E-1,3.504212952E-1,9.880653076E0,9.887817851E0
5.294534999E-1,1.263372803E-1,3.510200500E-1,9.892029419E0,9.899061683E0
5.393925000E-1,1.053808594E-1,3.559597778E-1,9.859696655E0,9.866682858E0
5.493315000E-1,1.169068909E-1,3.676354980E-1,9.848470001E0,9.856022750E0
5.592705000E-1,1.258882141E-1,3.427871704E-1,9.869426422E0,9.876179868E0
5.692095000E-1,1.591191101E-1,3.550616455E-1,9.832453308E0,9.840148663E0
5.791485000E-1,1.246907043E-1,3.685336304E-1,9.843979340E0,9.851664532E0
5.890875000E-1,9.415420532E-2,3.474275208E-1,9.912536774E0,9.919070329E0
5.990265000E-1,1.187031555E-1,3.549119568E-1,9.952054596E0,9.959088493E0
6.089655000E-1,1.402583313E-1,3.640429688E-1,9.840536499E0,9.848266765E0
6.189045000E-1,1.170565796E-1,3.550616455E-1,9.815089417E0,9.822207047E0
6.288435000E-1,9.744735718E-2,3.478765869E-1,9.903405762E0,9.909992926E0
6.387825001E-1,1.463955688E-1,3.477268982E-1,9.910590820E0,9.917769712E0
6.487215001E-1,1.374142456E-1,3.514691162E-1,9.834698639E0,9.841936320E0
6.586605001E-1,1.291813660E-1,3.661386108E-1,9.827663269E0,9.835329717E0
6.685994999E-1,1.230441284E-1,3.499722290E-1,9.852511597E0,9.859493150E0
6.785384999E-1,1.199006653E-1,3.606001282E-1,9.863738251E0,9.871055714E0
6.884774999E-1,1.314266968E-1,3.472778320E-1,9.858798523E0,9.865788523E0
6.984154999E-1,1.272354126E-1,3.555107117E-1,9.869276733E0,9.876497353E0
7.083544999E-1,1.182540894E-1,3.604504395E-1,9.871821442E0,9.879107608E0
7.182934999E-1,1.149609375E-1,3.608995056E-1,9.881700897E0,9.888957331E0
7.282352082E-1,1.121168518E-1,3.474275208E-1,9.873168640E0,9.879915742E0
7.381742082E-1,1.151106262E-1,3.454815674E-1,9.847422180E0,9.854153011E0
7.481132082E-1,1.276844788E-1,3.549119568E-1,9.851912842E0,9.859130411E0
7.580522082E-1,1.438508606E-1,3.350033569E-1,9.849966888E0,9.856711826E0
7.679912082E-1,1.396595764E-1,3.465293884E-1,9.854158173E0,9.861238295E0
7.779302082E-1,1.199006653E-1,3.541635132E-1,9.862241364E0,9.869326860E0
7.878692083E-1,1.261875916E-1,3.475772095E-1,9.883347473E0,9.890262408E0
7.978082083E-1,1.408570862E-1,3.580554199E-1,9.874515839E0,9.882009282E0
8.077472083E-1,1.392105103E-1,3.567082214E-1,9.853260040E0,9.860697427E0
8.176862083E-1,1.240919495E-1,3.610491943E-1,9.877659302E0,9.885034578E0
8.276252083E-1,1.188528442E-1,3.459306335E-1,9.880653076E0,9.887421262E0
8.375642083E-1,1.173559570E-1,3.403921509E-1,9.875114594E0,9.881676349E0
8.475032083E-1,1.279838562E-1,3.375480652E-1,9.861642609E0,9.868247742E0
8.574422083E-1,1.263372803E-1,3.540138245E-1,9.869576111E0,9.876731216E0
8.673812083E-1,1.263372803E-1,3.526666260E-1,9.882748718E0,9.889846161E0
8.773202084E-1,1.224453735E-1,3.486250305E-1,9.895023193E0,9.901919828E0
8.872592084E-1,1.209484863E-1,3.439846802E-1,9.869576111E0,9.876309362E0
8.971982084E-1,1.225950623E-1,3.342549133E-1,9.855954437E0,9.862382763E0
9.071372084E-1,1.285826111E-1,3.450325012E-1,9.872420197E0,9.879284461E0
9.170762084E-1,1.305285645E-1,3.508703613E-1,9.860594788E0,9.867698682E0
9.270152084E-1,1.448986816E-1,3.474275208E-1,9.845476227E0,9.852669874E0
9.369542082E-1,1.333726501E-1,3.535647583E-1,9.853260040E0,9.860503523E0
9.468932082E-1,1.345701599E-1,3.382965088E-1,9.873917084E0,9.880627117E0
9.568322082E-1,1.297801208E-1,3.451821899E-1,9.874366150E0,9.881249946E0
9.667712082E-1,1.140628052E-1,3.576063538E-1,9.859397278E0,9.866539784E0
9.767092082E-1,1.425036621E-1,3.471281433E-1,9.879305878E0,9.886429581E0
9.866482082E-1,1.261875916E-1,3.291654968E-1,9.895322571E0,9.901599972E0
9.965872082E-1,1.386117554E-1,3.504212952E-1,9.856852570E0,9.864053471E0
1.006526208E0,1.393601990E-1,3.523672485E-1,9.812844086E0,9.820157483E0
1.016465208E0,1.481918335E-1,3.376977539E-1,9.885443115E0,9.892319555E0
1.026404208E0,1.269360352E-1,3.417393494E-1,9.922565918E0,9.929260443E0
1.036343208E0,1.170565796E-1,3.356021118E-1,9.868228912E0,9.874627734E0
1.046282208E0,1.246907043E-1,3.324586487E-1,9.839638367E0,9.846042845E0
1.056221208E0,1.306782532E-1,3.308120728E-1,9.870623932E0,9.877030436E0
1.066160208E0,1.248403931E-1,3.439846802E-1,9.862840118E0,9.869626426E0
1.076099208E0,1.160087585E-1,3.598516846E-1,9.860145721E0,9.867392002E0
1.086038208E0,1.486408997E-1,3.457809448E-1,9.873767395E0,9.880938273E0
1.095977208E0,1.219963074E-1,3.442840576E-1,9.878856812E0,9.885607038E0
1.105916208E0,1.287322998E-1,3.462300110E-1,9.865384827E0,9.872297858E0
1.115855208E0,1.260379028E-1,3.508703613E-1,9.866732025E0,9.873773160E0
1.125794208E0,1.206491089E-1,3.555107117E-1,9.869576111E0,9.876713860E0
1.135733208E0,1.242416382E-1,3.517684937E-1,9.862091675E0,9.869145316E0
1.145672208E0,1.231938171E-1,3.460803223E-1,9.862540741E0,9.869379827E0
1.155611208E0,1.425036621E-1,3.478765869E-1,9.867929535E0,9.875087783E0
1.165550208E0,1.435514832E-1,3.481759644E-1,9.877958679E0,9.885135366E0
1.175489208E0,1.363664246E-1,3.460803223E-1,9.862840118E0,9.869852207E0
1.185428208E0,1.272354126E-1,3.529660034E-1,9.860445099E0,9.867580828E0
1.195367208E0,1.151106262E-1,3.540138245E-1,9.883497162E0,9.890505164E0
1.205306208E0,1.474433899E-1,3.427871704E-1,9.896071014E0,9.903103762E0
1.215245208E0,1.209484863E-1,3.370989990E-1,9.887987823E0,9.894471561E0
1.225184208E0,1.202000427E-1,3.537144470E-1,9.866432648E0,9.873502679E0
1.235123208E0,1.172062683E-1,3.529660034E-1,9.866432648E0,9.873439902E0
1.245061208E0,1.219963074E-1,3.559597778E-1,9.872120819E0,9.879289445E0
1.255000208E0,1.184037781E-1,3.388952637E-1,9.813592529E0,9.820156200E0
1.264939208E0,1.064286804E-1,3.403921509E-1,9.791288910E0,9.797782014E0
1.274878208E0,1.466949463E-1,3.484753418E-1,9.906100159E0,9.913313010E0
1.284817208E0,1.279838562E-1,3.344046021E-1,9.901010742E0,9.907483032E0
1.294756208E0,1.243913269E-1,3.414399719E-1,9.845775604E0,9.852479470E0
1.304695208E0,1.377136230E-1,3.456312561E-1,9.834848328E0,9.841883338E0
1.314634208E0,1.104702759E-1,3.423381042E-1,9.832602997E0,9.839180898E0
1.324573208E0,1.579216003E-1,3.369493103E-1,9.876162415E0,9.883170448E0
1.334512208E0,1.631607056E-1,3.420387268E-1,9.928104401E0,9.935334363E0
1.344451208E0,1.649569702E-1,3.308120728E-1,9.895771637E0,9.902673564E0
1.354390208E0,1.399589539E-1,3.484753418E-1,9.841135254E0,9.848297653E0
1.364329208E0,1.577719116E-1,3.471281433E-1,9.806856537E0,9.814266405E0
1.374268208E0,1.672023010E-1,3.451821899E-1,9.832602997E0,9.840080744E0
1.384207208E0,2.013313293E-1,3.550616455E-1,9.852062531E0,9.860514144E0
1.394146208E0,2.124082947E-1,3.415896606E-1,9.851763153E0,9.859971501E0
1.404085208E0,1.823208618E-1,3.317102051E-1,9.849068756E0,9.856339479E0
1.414024208E0,1.740879822E-1,3.441343689E-1,9.856104126E0,9.863646569E0
1.423963208E0,1.910028076E-1,3.438349915E-1,9.843679962E0,9.851534894E0
1.433902208E0,1.802252197E-1,3.400927734E-1,9.832602997E0,9.840133430E0
1.443841208E0,1.769320679E-1,3.302133179E-1,9.834399261E0,9.841532128E0
1.453780208E0,2.067201233E-1,3.360511780E-1,9.884095917E0,9.891967231E0
1.463719208E0,1.878593445E-1,3.499722290E-1,9.907297668E0,9.915256869E0
1.473658208E0,1.821711731E-1,3.255729675E-1,9.853858795E0,9.860918682E0
1.483597208E0,1.868115234E-1,3.333567810E-1,9.848470001E0,9.855880816E0
1.493535208E0,1.782792664E-1,3.236270142E-1,9.844278717E0,9.851210149E0
1.503474208E0,1.974394226E-1,3.414399719E-1,9.809251556E0,9.817177786E0
1.513413208E0,1.769320679E-1,3.535647583E-1,9.838440857E0,9.846381645E0
1.523352208E0,1.923500061E-1,3.540138245E-1,9.847122803E0,9.855361577E0
1.533291208E0,1.932481384E-1,3.489244080E-1,9.829010468E0,9.837100175E0
1.543230208E0,1.986369324E-1,3.231779480E-1,9.881401520E0,9.888680226E0
1.553169208E0,2.278262329E-1,3.327580261E-1,9.885592804E0,9.893815128E0
1.563108208E0,1.261875916E-1,3.254232788E-1,9.847871246E0,9.854054582E0
1.573047208E0,-5.822891235E-2,3.209326172E-1,9.829609222E0,9.835019360E0
1.582986208E0,-2.121089172E-1,3.005749512E-1,9.929750977E0,9.936563287E0
1.592925208E0,-3.787124634E-1,2.763253784E-1,9.971963196E0,9.982976952E0
1.602864208E0,-5.739065552E-1,2.763253784E-1,9.940678253E0,9.961064631E0
1.612803208E0,-8.327183533E-1,2.929408264E-1,9.893226929E0,9.932531059E0
1.622742208E0,-1.175056458E0,2.736309814E-1,9.892628174E0,9.965928144E0
1.632681208E0,-1.402583313E0,2.418969727E-1,9.980345764E0,1.008132212E1
1.642620208E0,-1.734293518E0,2.251318359E-1,1.002046234E1,1.017192823E1
1.652559208E0,-2.226320343E0,1.502874756E-1,9.933493195E0,1.018103019E1
1.662498208E0,-2.511177979E0,6.631210327E-2,9.971514130E0,1.028306891E1
1.672437208E0,-2.330952759E0,1.631607056E-2,1.007075775E1,1.033700966E1
1.682376208E0,-2.169738007E0,4.939727783E-2,1.007958939E1,1.031059287E1
1.692315208E0,-2.215842133E0,9.879455566E-2,1.006237518E1,1.030393668E1
1.702254208E0,-2.072889404E0,1.489402771E-1,9.970017242E0,1.018431625E1
1.712193208E0,-2.010469208E0,1.528321838E-1,9.959988098E0,1.016202278E1
1.722129583E0,-2.095492401E0,1.344204712E-1,9.856553192E0,1.007773775E1
1.732068583E0,-2.272873535E0,1.196012878E-1,9.882149963E0,1.014086517E1
1.742006583E0,-2.047292633E0,1.794767761E-1,9.976753235E0,1.018622718E1
1.751945583E0,-1.808988190E0,2.324665833E-1,9.978998566E0,1.014430339E1
1.761884583E0,-1.594783630E0,3.537144470E-1,9.969268799E0,1.010221605E1
1.771823583E0,-1.359472961E0,4.327500916E-1,1.001821701E1,1.011929402E1
1.781762583E0,-1.314566345E0,4.643344116E-1,1.001492386E1,1.011149796E1
1.791701583E0,-1.440903625E0,4.381388855E-1,9.987530823E0,1.010044261E1
1.801640583E0,-1.488804016E0,3.676354980E-1,9.922416229E0,1.004022097E1
1.811579583E0,-1.427281952E0,2.630030823E-1,9.837991791E0,9.944465137E0
1.821518583E0,-1.233584747E0,1.246907043E-1,9.848619690E0,9.926358290E0
1.831457583E0,-9.222322083E-1,1.026864624E-1,9.906549225E0,9.949913281E0
1.841396583E0,-7.631130981E-1,1.329235840E-1,9.910740509E0,9.940965130E0
1.851335583E0,-7.306306458E-1,2.025288391E-1,9.897118835E0,9.926117081E0
1.861274583E0,-6.629713440E-1,2.585124207E-1,1.000803818E1,1.003330393E1
1.871213583E0,-5.957611084E-1,2.368075562E-1,9.894274750E0,9.915023043E0
1.881152583E0,-3.580554199E-1,1.692979431E-1,9.650731201E0,9.658854911E0
1.891091583E0,-5.403762817E-2,1.704954529E-1,9.714199219E0,9.715845574E0
1.901030583E0,2.335144043E-1,2.613565063E-1,9.864486694E0,9.870710914E0
1.910969583E0,2.727328491E-1,3.987707520E-1,9.900561676E0,9.912341944E0
1.920908583E0,1.462458801E-1,4.453239441E-1,9.747430115E0,9.758693310E0
1.930847583E0,1.435514832E-1,4.587959290E-1,9.789193268E0,9.800990030E0
1.940786583E0,5.837860107E-2,5.319937134E-1,1.004531067E1,1.005955724E1
1.950725583E0,-1.348695374E-1,5.821394348E-1,1.004755600E1,1.006530962E1
1.960664583E0,-1.199006653E-1,5.831872559E-1,9.978250122E0,9.995997151E0
1.970602583E0,-2.035766602E-2,5.204676819E-1,1.009186386E1,1.010529649E1
1.980541583E0,-8.442443848E-2,4.246669006E-1,1.005653732E1,1.006585378E1
1.990480583E0,-1.351689148E-1,2.866539001E-1,1.000324814E1,1.000826730E1
2.000419583E0,-1.553768921E-1,2.272274780E-1,1.004171814E1,1.004549041E1
2.010358583E0,-6.556365967E-2,1.863624573E-1,9.963281250E0,9.965239727E0
2.020297583E0,1.420545959E-1,2.321672058E-1,9.857750702E0,9.861507492E0
2.030236583E0,2.680924988E-1,2.607577515E-1,9.938582611E0,9.945616749E0
2.040175583E0,1.993853760E-1,3.188369751E-1,9.898016968E0,9.905157820E0
2.050114583E0,1.398092651E-1,3.981719971E-1,9.783205719E0,9.792303187E0
2.060053583E0,7.095245361E-2,4.058061218E-1,9.658515015E0,9.667296682E0
2.069992583E0,3.173400879E-2,4.050576782E-1,9.672885132E0,9.681414439E0
2.079931583E0,2.636018372E-1,4.062551880E-1,9.902807007E0,9.914641487E0
2.089870583E0,4.620890808E-1,5.364843750E-1,9.909842377E0,9.935105321E0
2.099809583E0,8.116122437E-1,7.131170654E-1,1.002195923E1,1.008002565E1
2.109748583E0,1.074465637E0,8.439450073E-1,9.966724091E0,1.005993582E1
2.119687583E0,1.208586731E0,7.777825928E-1,9.924212494E0,1.002774258E1
2.129626583E0,1.072669373E0,6.526428223E-1,9.685309296E0,9.766359526E0
2.139565583E0,9.234297180E-1,5.004093933E-1,9.668843536E0,9.725721944E0
2.149504583E0,7.776329041E-1,3.867956543E-1,9.907746735E0,9.945741258E0
2.159443583E0,9.027726746E-1,3.191363525E-1,1.001342697E1,1.005910365E1
2.169382583E0,8.006849670E-1,2.371069336E-1,9.997859344E0,1.003267201E1
2.179321583E0,5.745053101E-1,2.233355713E-1,1.005818390E1,1.007705306E1
2.189260583E0,7.113208008E-1,1.387614441E-1,1.013662079E1,1.016249541E1
2.199198583E0,8.023315430E-1,-1.945953369E-3,9.945468292E0,9.977779274E0
2.209137583E0,7.686515808E-1,-2.023791504E-1,9.774673462E0,9.806937537E0
2.219076583E0,4.950205994E-1,-4.004173279E-1,9.760153656E0,9.780898671E0
2.229015583E0,4.092489624E-1,-5.646258545E-1,9.712253265E0,9.737255802E0
2.238954583E0,7.851173401E-1,-3.242257690E-1,9.827363892E0,9.864005913E0
2.248893583E0,1.007405090E0,1.160087585E-1,1.007030869E1,1.012123708E1
2.258832583E0,1.178050232E0,5.167254639E-1,1.013961456E1,1.022088993E1
2.268771583E0,1.242416382E0,6.628216553E-1,9.949809265E0,1.004896191E1
2.278710583E0,1.418749695E0,5.553451538E-1,9.697434082E0,9.816388680E0
2.288649583E0,1.730401611E0,3.917353821E-1,9.811197510E0,9.970323110E0
2.298588583E0,1.976639557E0,2.354603577E-1,9.810299377E0,1.001022075E1
2.308527583E0,2.220033417E0,4.236190796E-2,9.570198669E0,9.824410694E0
2.318466583E0,2.595452728E0,-4.191284180E-3,9.396709442E0,9.748566088E0
2.328405583E0,2.775677948E0,-1.191522217E-1,9.577683105E0,9.972492115E0
2.338344583E0,2.811303864E0,-3.535647583E-1,9.853858795E0,1.025314443E1
2.348283583E0,2.580483856E0,-5.295986938E-1,9.755662994E0,1.010506468E1
2.358222583E0,2.285148010E0,-6.146218872E-1,9.550439758E0,9.839235797E0
2.368161583E0,2.079625397E0,-5.716612244E-1,9.771230621E0,1.000642724E1
2.378100583E0,1.954934692E0,-3.125500488E-1,1.004321503E1,1.023648501E1
2.388039583E0,1.573527832E0,-1.919009399E-1,9.954599304E0,1.008002297E1
2.397978583E0,-4.501139832E-1,4.176315308E-2,1.014664993E1,1.015671461E1
2.407916583E0,-3.288661194E-1,2.769241333E-1,9.903405762E0,9.912733507E0
2.417855583E0,-3.288661194E-1,9.864486694E-2,9.806257782E0,9.812266579E0
2.427794583E0,-3.326083374E-1,2.734812927E-1,1.007120682E1,1.008040808E1
2.437733583E0,-2.037263489E-1,1.064286804E-1,1.005653732E1,1.005916370E1
2.447672583E0,-2.050735474E-1,1.377136230E-1,9.916428680E0,9.919504926E0
2.457611583E0,-2.480342102E-1,1.393601990E-1,1.010758118E1,1.011158442E1
2.467550583E0,-3.743714905E-1,2.570155334E-1,9.943672028E0,9.954035583E0
2.477489583E0,-4.884342957E-1,2.154020691E-1,9.740843811E0,9.755460228E0
2.487428583E0,-4.763095093E-1,2.052232361E-1,9.913883972E0,9.927440896E0
2.497367583E0,-5.086422729E-1,2.321672058E-1,9.711355133E0,9.727437334E0
2.507306583E0,-4.379891968E-1,2.395019531E-1,9.468859406E0,9.482008973E0
2.517245583E0,-3.212319946E-1,2.896476746E-1,9.645192719E0,9.654886242E0
2.527184583E0,-2.700384521E-1,2.703378296E-1,9.685009918E0,9.692544579E0
2.537123583E0,-4.076023865E-1,3.264710999E-1,9.659413147E0,9.673519806E0
2.547062583E0,-4.435276794E-1,4.432283020E-1,9.846224670E0,9.866169895E0
2.557001583E0,-3.661386108E-1,5.495072937E-1,1.009186386E1,1.011344313E1
2.566940583E0,-3.975732422E-1,1.271306305E0,1.009964767E1,1.018710790E1
2.576879583E0,-3.097059631E-1,2.242935791E0,9.854756927E0,1.011152376E1
2.586818583E0,-1.410067749E-1,2.282603302E0,9.783505096E0,1.004724503E1
2.596757583E0,-7.753875732E-2,2.005828857E0,1.009650421E1,1.029411283E1
2.606696583E0,-2.170486450E-2,1.766027527E0,1.031160690E1,1.046176664E1
2.616635583E0,-1.038839722E-1,1.508263550E0,1.011581406E1,1.022816429E1
2.626573583E0,-2.857557678E-1,1.480870514E0,9.722581787E0,9.838863270E0
2.636512583E0,-3.002755737E-1,1.625769196E0,9.495354309E0,9.638207528E0
2.646451583E0,-3.138972473E-1,1.760039978E0,9.864636383E0,1.002533407E1
2.656390583E0,-2.588117981E-1,1.933529205E0,1.014515305E1,1.033100426E1
2.666329583E0,-2.498304749E-1,2.174827423E0,1.023391846E1,1.046543724E1
2.676268583E0,-3.716770935E-1,2.333347778E0,1.029035110E1,1.055812396E1
2.686207583E0,4.326004028E-2,2.401605835E0,1.033989807E1,1.061522841E1
2.696146583E0,2.891986084E-1,2.299518127E0,1.022418869E1,1.048358020E1
2.706085583E0,3.772155762E-1,2.030078430E0,9.823471985E0,1.003813289E1
2.716024583E0,1.901046753E-1,1.669777679E0,9.696086884E0,9.840650290E0
2.725963125E0,6.002517700E-2,1.160985718E0,9.768536224E0,9.837468720E0
2.735902125E0,3.562591553E-2,9.639953613E-1,9.651329956E0,9.699418858E0
2.745841125E0,1.227447510E-1,1.122964783E0,9.633516998E0,9.699524006E0
2.755780125E0,1.282832336E-1,1.449735260E0,9.651779022E0,9.760892746E0
2.765719125E0,2.260299683E-2,1.578617249E0,9.644444275E0,9.772811708E0
2.775658125E0,-4.087998962E-1,1.641935577E0,9.908195801E0,1.005163737E1
2.785597125E0,-6.433621216E-1,1.826202393E0,9.877060547E0,1.006505117E1
2.795536125E0,-4.595443726E-1,1.954335938E0,9.880054321E0,1.008196823E1
2.805475125E0,-5.480104065E-1,1.908231812E0,9.942025452E0,1.013832008E1
2.815414125E0,-7.574249268E-1,1.682501221E0,1.021640488E1,1.038168731E1
2.825353125E0,-1.099463654E0,1.347198486E0,1.008228378E1,1.023113925E1
2.835291125E0,-1.515298920E0,1.002465363E0,9.949509888E0,1.011404047E1
2.845230125E0,-8.202941895E-1,7.071295166E-1,1.031310379E1,1.036981314E1
2.855169125E0,3.727249146E-2,5.727090454E-1,1.026415558E1,1.028018845E1
2.865108125E0,5.318440247E-1,4.957690430E-1,1.007674530E1,1.010294219E1
2.875047125E0,3.832031250E-1,4.087998962E-1,9.545050964E0,9.561483143E0
2.884986125E0,9.145980835E-2,2.704875183E-1,9.424850922E0,9.429175112E0
2.894925125E0,-2.011816406E-1,2.448907471E-1,9.706116028E0,9.711288991E0
2.904864125E0,-5.719606018E-1,3.465293884E-1,9.547296295E0,9.570689008E0
2.914803125E0,-8.743318176E-1,5.186714172E-1,9.474397888E0,9.528782268E0
2.924742125E0,-1.179996185E0,7.529342651E-1,9.646839294E0,9.747861785E0
2.934681125E0,-1.241967316E0,8.502319336E-1,9.718091125E0,9.833955068E0
2.944620125E0,-1.112935638E0,7.206015015E-1,9.816436615E0,9.905570154E0
2.954559125E0,-8.315208435E-1,7.608677673E-1,9.439071350E0,9.506125111E0
2.964498125E0,2.754272461E-2,9.205856323E-1,9.558373260E0,9.602642131E0
2.974437125E0,1.051862640E0,9.687854004E-1,1.004890320E1,1.015014363E1
2.984376125E0,1.513053589E0,1.016985168E0,1.031355286E1,1.047344082E1
2.994315125E0,1.328786774E0,1.141226807E0,9.729617157E0,9.886026651E0
3.004254125E0,1.013841705E0,1.088536377E0,9.733209686E0,9.846225533E0
3.014193125E0,6.366261292E-1,1.000220032E0,9.926158447E0,9.996717184E0
3.024132125E0,-5.897735596E-2,1.019080811E0,9.877808990E0,9.930413611E0
3.034070125E0,-6.616241455E-1,1.049916687E0,1.007225464E1,1.014841786E1
3.044009125E0,-8.235873413E-1,1.011596375E0,1.022673340E1,1.030959259E1
3.053948125E0,-6.713539124E-1,1.025816803E0,1.009605515E1,1.017021857E1
3.063887125E0,-6.123765564E-1,7.053332520E-1,1.037043457E1,1.041241630E1
3.073826125E0,-7.225474548E-1,2.448907471E-1,1.028870453E1,1.031695145E1
3.083765125E0,-6.140231323E-1,-2.294728088E-1,9.822124786E0,9.843973664E0
3.093704125E0,-1.775308228E-1,-8.460406494E-1,9.999805298E0,1.003710157E1
3.103643125E0,4.020639038E-1,-1.162781982E0,1.007554779E1,1.015038820E1
3.113582125E0,1.187779999E0,-1.171164551E0,1.002435425E1,1.016219100E1
3.123521125E0,1.579365692E0,-1.115031281E0,1.005803421E1,1.024215519E1
3.133460125E0,1.096469879E0,-1.231189728E0,9.859546967E0,9.996436401E0
3.143399125E0,4.432283020E-1,-1.341510315E0,9.461075592E0,9.565984142E0
3.153338125E0,-2.426454163E-1,-1.537602539E0,9.509275360E0,9.635840194E0
3.163277125E0,-9.310638428E-1,-1.880988464E0,9.783804474E0,1.000638933E1
3.173216125E0,-1.232985992E0,-2.039658508E0,9.725725250E0,1.001350053E1
3.183155125E0,-9.744735718E-1,-1.791624298E0,9.626781006E0,9.840448613E0
3.193094125E0,-5.345384216E-1,-1.606758728E0,9.813293152E0,9.958319508E0
3.203033125E0,1.167572021E-1,-1.597178650E0,9.936037903E0,1.006426655E1
3.212972125E0,8.502319336E-1,-1.920655975E0,1.023556503E1,1.044885665E1
3.222911125E0,7.188052368E-1,-2.162702637E0,9.755962372E0,1.001862094E1
3.232849125E0,3.285667419E-1,-2.384391632E0,9.480834503E0,9.781589975E0
3.242788125E0,-3.397933960E-2,-2.722239075E0,9.741592255E0,1.011485837E1
3.252727125E0,-3.908372498E-1,-3.059038696E0,9.674232330E0,1.015387821E1
3.262666125E0,-5.695655823E-1,-3.213517456E0,9.365723877E0,9.918058436E0
3.272605125E0,-6.703060913E-1,-3.386407928E0,9.600585480E0,1.020236789E1
3.282544125E0,-8.231382751E-1,-3.334765320E0,9.633067932E0,1.022713128E1
3.292483125E0,-8.038284302E-1,-3.172203369E0,9.535620575E0,1.008152142E1
3.302422125E0,-4.005670166E-1,-2.936443634E0,9.673483887E0,1.011728450E1
3.312361125E0,1.660047913E-1,-2.646346893E0,9.776619415E0,1.012980734E1
3.322300125E0,5.625302124E-1,-2.211501160E0,1.003019211E1,1.028649266E1
3.332239125E0,7.256909180E-1,-1.839375000E0,1.007569748E1,1.026789206E1
3.342178125E0,4.323010254E-1,-9.256750488E-1,1.014111145E1,1.019244328E1
3.352117125E0,-2.020797729E-2,5.828878784E-1,1.065169968E1,1.066765544E1
3.362056125E0,-2.634521484E-2,-9.505233765E-2,1.029304550E1,1.029351809E1
3.371995125E0,-1.526824951E-2,1.622625732E-1,1.004770569E1,1.004902741E1
3.381934125E0,2.409988403E-2,2.619552612E-2,1.014799713E1,1.014805956E1
3.391873125E0,7.304809570E-2,1.440005493E-1,9.968220978E0,9.969528657E0
3.401812125E0,6.975494385E-2,1.269360352E-1,9.958491211E0,9.959544453E0
3.411751125E0,5.298980713E-2,1.788780212E-1,1.001342697E1,1.001516475E1
3.421689125E0,5.224136353E-2,1.851649475E-1,1.000175125E1,1.000360152E1
3.431628125E0,1.496887207E-4,2.052232361E-1,9.920769653E0,9.922892074E0
3.441567125E0,-5.748046875E-2,1.818717957E-1,9.748477936E0,9.750343759E0
3.451506125E0,1.047821045E-3,7.185058594E-2,9.879455566E0,9.879716893E0
3.461445125E0,6.017486572E-2,5.553451538E-2,1.014051270E1,1.014084330E1
3.471384125E0,-4.879852295E-2,2.046244812E-1,9.932894440E0,9.935121762E0
3.481323125E0,-6.107299805E-2,2.362088013E-1,9.810000000E0,9.813033400E0
3.491262125E0,2.963836670E-2,2.174977112E-1,9.923314362E0,9.925741867E0
3.501201125E0,3.233276367E-2,2.067201233E-1,9.834848328E0,9.837073764E0
3.511140125E0,3.936813354E-2,1.670526123E-1,9.743837585E0,9.745349009E0
3.521079125E0,7.035369873E-3,1.956431580E-1,9.839638367E0,9.841585692E0
3.531018125E0,4.056564331E-2,1.571731567E-1,9.883796539E0,9.885129387E0
3.540957125E0,-4.041595459E-3,1.125659180E-1,9.843530273E0,9.844174707E0
3.550896125E0,-9.430389404E-3,1.185534668E-1,9.891280975E0,9.891995915E0
3.560835125E0,5.583389282E-2,1.121168518E-1,9.958491211E0,9.959278830E0
3.570774125E0,1.727407837E-1,2.918930054E-2,1.014171021E1,1.014322322E1
3.580713125E0,3.845503235E-1,-1.163081360E-1,1.004920258E1,1.005723018E1
3.590652125E0,5.137316895E-1,-4.558021545E-1,9.782457275E0,9.806535892E0
3.600591125E0,4.384382629E-1,-8.919950867E-1,9.558972015E0,9.610506196E0
3.610529125E0,2.098635864E-1,-1.155297546E0,9.620494080E0,9.691886374E0
3.620468125E0,2.679428101E-2,-1.166224823E0,9.695039063E0,9.764967009E0
3.630407125E0,-2.424957275E-2,-1.027613068E0,9.878557434E0,9.931891745E0
3.640346125E0,-1.215472412E-1,-8.893006897E-1,9.927954712E0,9.968445928E0
3.650285125E0,-1.615141296E-1,-9.047186279E-1,9.842033386E0,9.884848192E0
3.660224125E0,-2.363584900E-1,-1.016386414E0,9.713750153E0,9.769639129E0
3.670163125E0,-4.658312988E-1,-9.813592529E-1,9.698631592E0,9.759278638E0
3.680102125E0,-6.222560120E-1,-8.035290527E-1,9.829010468E0,9.881412260E0
3.690041125E0,-5.685177612E-1,-6.791377258E-1,9.988878021E0,1.002806684E1
3.699980125E0,-4.963677979E-1,-5.962101746E-1,1.000504440E1,1.003507654E1
3.709919125E0,-3.559597778E-1,-6.370751953E-1,1.004366409E1,1.007014203E1
3.719858125E0,-1.646575928E-1,-9.581575012E-1,9.995314636E0,1.004248438E1
3.729797083E0,-5.388793945E-3,-1.331331482E0,9.919721832E0,1.000866394E1
3.739736083E0,1.046324158E-1,-1.625020752E0,9.765692139E0,9.900524397E0
3.749675083E0,3.790118408E-1,-1.839674377E0,9.590256958E0,9.772465416E0
3.759614083E0,6.515950012E-1,-1.742975464E0,9.683962097E0,9.861118669E0
3.769553083E0,7.475454712E-1,-1.393901367E0,9.690099335E0,9.818340510E0
3.779492083E0,3.879931641E-1,-1.087189178E0,9.755662994E0,9.823720246E0
3.789431083E0,1.362167358E-1,-7.777825928E-1,9.988878021E0,1.002003917E1
3.799370083E0,-1.243913269E-1,-6.973997498E-1,1.023331970E1,1.025781028E1
3.809308083E0,-3.643423462E-1,-9.834548950E-1,1.013751892E1,1.019162493E1
3.819247083E0,-4.796026611E-1,-1.406325531E0,1.001896545E1,1.012854575E1
3.829186083E0,-5.673202515E-1,-1.646725616E0,9.950557709E0,1.010183925E1
3.839125083E0,-4.240681458E-1,-1.685195618E0,9.756261749E0,9.909811370E0
3.849064083E0,-3.385958862E-1,-1.651815033E0,9.572444000E0,9.719816059E0
3.859003083E0,-2.499801636E-1,-1.464704132E0,9.724527740E0,9.837392340E0
3.868942083E0,4.969665527E-2,-1.105900269E0,9.786049805E0,9.848464649E0
3.878881083E0,5.536985779E-1,-7.057823181E-1,9.901609497E0,9.942161809E0
3.888820083E0,8.855584717E-1,-4.352947998E-1,1.009081604E1,1.013894786E1
3.898759083E0,7.421566772E-1,-5.962101746E-1,1.000953506E1,1.005470314E1
3.908698083E0,4.032614136E-1,-8.586145020E-1,9.829309845E0,9.874976995E0
3.918637083E0,1.645079041E-1,-9.264234924E-1,9.771829376E0,9.817024636E0
3.928576083E0,1.116677856E-1,-9.333091736E-1,9.722581787E0,9.767913406E0
3.938515083E0,-2.796185303E-1,-8.005352783E-1,9.768386536E0,9.805122068E0
3.948454083E0,-7.345225525E-1,-6.128256226E-1,9.843829651E0,9.890200242E0
3.958393083E0,-7.451504517E-1,-3.803590393E-1,9.871821442E0,9.907208526E0
3.968332083E0,-1.619631958E-1,-1.438508606E-1,9.832303619E0,9.834689604E0
3.978271083E0,6.035449219E-1,-3.083587646E-2,1.006372238E1,1.008185129E1
3.988209083E0,7.476951599E-1,-2.353106689E-1,1.015757721E1,1.018777669E1
3.998148083E0,3.079096985E-1,-5.393284607E-1,9.903106384E0,9.922560135E0
4.008087083E0,6.376739502E-2,-5.888754272E-1,9.781259766E0,9.799177677E0
4.018026083E0,-8.816665649E-2,-3.107537842E-1,9.809700623E0,9.815017452E0
4.027965083E0,-2.260299683E-1,1.939965820E-1,9.698481903E0,9.703054954E0
4.037904083E0,-1.404080200E-1,5.833369446E-1,9.839937744E0,9.858213388E0
4.047843083E0,4.101470947E-2,6.613247681E-1,1.006327332E1,1.008506334E1
4.057782083E0,7.469467163E-2,5.718109131E-1,9.985584869E0,1.000222236E1
4.067721083E0,-1.715432739E-1,3.929328918E-1,1.003872437E1,1.004787591E1
4.077660083E0,-3.508703613E-1,1.924996948E-1,1.012704071E1,1.013494547E1
4.087599083E0,-3.638932800E-1,2.119592285E-1,9.915081482E0,9.924020648E0
4.097538083E0,-2.007325745E-1,2.653981018E-1,9.714348907E0,9.720046523E0
4.107477083E0,-7.214996338E-2,3.344046021E-1,9.849218445E0,9.855157839E0
4.117416083E0,-2.595602417E-1,6.686595154E-1,9.539063416E0,9.565992260E0
4.127355083E0,-2.143542480E-1,9.348060608E-1,9.598938904E0,9.646731996E0
4.137294083E0,-2.685415649E-1,1.002914429E0,1.004231689E1,1.009584472E1
4.147233083E0,-2.725831604E-1,9.822573853E-1,1.017733612E1,1.022825995E1
4.157172083E0,-7.903564453E-2,8.421487427E-1,1.017808456E1,1.021317123E1
4.167110083E0,-1.892065430E-1,5.917195129E-1,1.000309845E1,1.002237046E1
4.177049083E0,-2.369572449E-1,3.360511780E-1,9.835147705E0,9.843739610E0
4.186988083E0,-2.694396973E-1,1.058299255E-1,9.818083191E0,9.822349783E0
4.196927083E0,-6.197113037E-1,7.589218140E-2,9.723330231E0,9.743354273E0
4.206866083E0,-7.933502197E-1,1.308279419E-1,9.975106659E0,1.000746089E1
4.216805083E0,-3.764671326E-1,3.300636292E-1,9.874366150E0,9.887050944E0
4.226744083E0,-1.360670471E-1,4.851411438E-1,9.657167816E0,9.670303325E0
4.236683083E0,-1.609153748E-1,7.238946533E-1,9.827064514E0,9.855004525E0
4.246622083E0,-5.179229736E-2,8.749305725E-1,9.911039886E0,9.949718467E0
4.256561083E0,1.101708984E-1,9.785151672E-1,9.925709381E0,9.974434133E0
4.266500083E0,2.269281006E-1,1.143621826E0,9.954449615E0,1.002249642E1
4.276439083E0,2.624043274E-1,1.110241241E0,9.918374634E0,9.983769179E0
4.286378083E0,3.996688843E-2,7.153623962E-1,9.947863312E0,9.973631494E0
4.296317083E0,-1.493893433E-1,3.667373657E-1,9.810898132E0,9.818886680E0
4.306256083E0,-4.770579529E-1,2.408491516E-1,9.781409454E0,9.795997321E0
4.316195083E0,-7.634124756E-1,3.296145630E-1,9.929900665E0,9.964656120E0
4.326134083E0,-7.972421265E-1,6.536906433E-1,9.911638641E0,9.965113498E0
4.336073083E0,-8.750802612E-1,1.037342834E0,9.706265717E0,9.800685679E0
4.346011083E0,-9.717791748E-1,1.466500397E0,9.709109802E0,9.867207879E0
4.355950083E0,-1.016087036E0,1.928439789E0,9.743388519E0,9.984234208E0
4.365889083E0,-7.975415039E-1,2.197879486E0,9.705068207E0,9.982739884E0
4.375828083E0,-5.239105225E-1,2.393822021E0,9.834998016E0,1.013568212E1
4.385767083E0,-4.444258118E-1,2.581232300E0,9.962383118E0,1.030093937E1
4.395706083E0,-8.360115051E-1,2.826721802E0,9.845027161E0,1.027685901E1
4.405645083E0,-6.370751953E-1,3.351530457E0,9.713151398E0,1.029484975E1
4.415584083E0,1.407073975E-1,4.061653748E0,9.882898407E0,1.068590243E1
4.425523083E0,8.255332947E-1,4.747078400E0,1.008318192E1,1.117527700E1
4.435462083E0,1.244062958E0,5.158423004E0,1.004336472E1,1.135896982E1
4.445401083E0,1.121916962E0,5.026996307E0,1.018347336E1,1.141194634E1
4.455340083E0,2.215393066E-1,4.251159668E0,1.017284546E1,1.102761184E1
4.465279083E0,-7.084767151E-1,2.268382874E0,9.468410339E0,9.762084535E0
4.475218083E0,-4.216731262E-1,-6.845265198E-1,8.868008881E0,8.904379051E0
4.485157083E0,-2.448907471E-1,5.547463989E-1,9.890233154E0,9.908805523E0
4.495096083E0,-4.388873291E-1,-2.380050659E-2,9.730814667E0,9.740736247E0
4.505035083E0,-4.031117249E-1,2.106120300E-1,9.861343231E0,9.871825911E0
4.514973083E0,-3.198847961E-1,1.724414062E-1,1.021580612E1,1.022226771E1
4.524912083E0,-2.171983337E-1,8.187973022E-2,1.031160690E1,1.031421913E1
4.534851083E0,-2.501298523E-1,1.788780212E-1,1.002734802E1,1.003206213E1
4.544790083E0,-2.489323425E-1,1.827699280E-1,9.923613739E0,9.928417890E0
4.554729083E0,-3.020718384E-1,1.932481384E-1,9.978549500E0,9.984990854E0
4.564668083E0,-3.279679871E-1,1.944456482E-1,9.924062805E0,9.931384328E0
4.574607083E0,-3.209326172E-1,2.065704346E-1,9.969119110E0,9.976422451E0
4.584546083E0,-2.644999695E-1,2.592608643E-1,1.003393433E1,1.004076762E1
4.594485083E0,-2.653981018E-1,2.077679443E-1,9.950108643E0,9.955815671E0
4.604424083E0,-1.526824951E-1,8.681945801E-2,9.714498596E0,9.716086277E0
4.614363083E0,2.140548706E-1,-2.863545227E-1,9.587113495E0,9.593777336E0
4.624302083E0,3.894900513E-1,-2.634521484E-1,9.627828827E0,9.639304822E0
4.634241083E0,6.255491638E-1,-2.424957275E-2,9.750274200E0,9.770350392E0
4.644180083E0,1.178050232E0,1.447489929E-1,9.891730042E0,9.962684269E0
4.654119083E0,1.546134796E0,2.929408264E-1,9.825867004E0,9.951080822E0
4.664058083E0,2.099983063E0,2.734812927E-1,9.844877472E0,1.007007117E1
4.673997083E0,2.155966644E0,2.447410583E-1,9.865684204E0,1.010147589E1
4.683936083E0,1.878144379E0,2.912942505E-1,9.822873230E0,1.000505458E1
4.693874083E0,2.126178589E0,3.360511780E-1,9.983788605E0,1.021320717E1
4.703813083E0,2.478246460E0,3.972738647E-1,9.759405212E0,1.007697981E1
4.713752083E0,2.566113739E0,5.288502502E-1,9.564510498E0,9.916878711E0
4.723691083E0,2.287093964E0,6.655160522E-1,9.693991241E0,9.982343242E0
4.733630333E0,1.615141296E0,6.828799438E-1,9.930798798E0,1.008443212E1
4.743569333E0,1.479822693E0,5.953120422E-1,1.000788849E1,1.013420464E1
4.753508333E0,1.730102234E0,5.108876038E-1,9.973011017E0,1.013485119E1
4.763447333E0,1.833686829E0,4.590953064E-1,9.966275024E0,1.014395454E1
4.773386333E0,1.927841034E0,3.441343689E-1,9.990075531E0,1.018020671E1
4.783325333E0,1.891616364E0,2.674937439E-1,9.920021210E0,1.010230598E1
4.793264333E0,1.998045044E0,1.597178650E-1,9.825118561E0,1.002749463E1
4.803203333E0,2.198627930E0,1.796264648E-3,9.789792023E0,1.003364320E1
4.813142333E0,2.045646057E0,-7.574249268E-2,9.892478485E0,1.010205599E1
4.823081333E0,1.929038544E0,-8.247848511E-2,9.815538483E0,1.000363874E1
4.833020333E0,2.207459564E0,2.903961182E-2,9.887987823E0,1.013143742E1
4.842959333E0,2.598745880E0,2.011816406E-1,9.923314362E0,1.025992798E1
4.852898333E0,2.667902069E0,2.700384521E-1,9.744136963E0,1.010637558E1
4.862836333E0,1.982776794E0,1.781295776E-1,9.841135254E0,1.004047195E1
4.872775333E0,1.252295837E0,3.323089600E-2,9.954599304E0,1.003311499E1
4.882714333E0,7.304809570E-1,-2.784210205E-2,9.876162415E0,9.903179371E0
4.892653333E0,6.924600220E-1,8.083190918E-3,9.865833893E0,9.890108423E0
4.902592333E0,7.470964050E-1,1.190025330E-1,1.025382706E1,1.028169655E1
4.912531333E0,8.020321655E-1,2.409988403E-1,1.023616379E1,1.027036441E1
4.922470333E0,6.207591248E-1,2.938389587E-1,9.896370392E0,9.920172889E0
4.932409333E0,3.830534363E-1,2.565664673E-1,9.859996033E0,9.870768868E0
4.942348333E0,1.945953369E-2,1.887574768E-1,9.867031403E0,9.868855899E0
4.952287333E0,2.417472839E-1,2.097138977E-1,9.928852844E0,9.934009285E0
4.962226333E0,9.452842712E-1,3.463796997E-1,1.009845016E1,1.014850910E1
4.972165333E0,1.332978058E0,4.526586914E-1,1.014425491E1,1.024146660E1
4.982104333E0,1.118174744E0,4.281097412E-1,9.747280426E0,9.820543183E0
4.992043333E0,7.256909180E-1,2.963836670E-1,9.868079224E0,9.899164518E0
5.001982333E0,3.832031250E-2,1.645079041E-1,1.015084122E1,1.015224649E1
5.011921333E0,-4.008663940E-1,1.086740112E-1,1.006447083E1,1.007303712E1
5.021860333E0,-9.804611206E-2,1.483415222E-1,1.002899460E1,1.003057082E1
5.031799333E0,2.933898926E-1,2.782713318E-1,9.771829376E0,9.780192325E0
5.041737333E0,4.587959290E-1,3.531156921E-1,9.628128204E0,9.645519017E0
5.051676333E0,2.996768188E-1,2.445913696E-1,9.935888214E0,9.943415195E0
5.061615333E0,-1.254391479E-1,1.222956848E-1,1.003318588E1,1.003471525E1
5.071554333E0,-6.412664795E-1,4.879852295E-2,9.848020935E0,9.868997940E0
5.081493333E0,-1.052311707E0,-2.619552612E-2,9.676477661E0,9.733563893E0
5.091432333E0,-1.390159149E0,-1.742376709E-1,9.750573578E0,9.850715016E0
5.101371333E0,-1.502425690E0,-1.963916016E-1,9.973759460E0,1.008819758E1
5.111310333E0,-1.448837128E0,-5.104385376E-2,1.003034180E1,1.013456911E1
5.121249333E0,-1.421743469E0,-6.137237549E-3,1.012419662E1,1.022353899E1
5.131188333E0,-1.313368835E0,2.694396973E-3,1.004171814E1,1.012724287E1
5.141127333E0,-1.744921417E0,-6.706054688E-2,9.933493195E0,1.008580859E1
5.151066333E0,-2.347119141E0,-1.938468933E-1,9.919422455E0,1.019516977E1
5.161005333E0,-2.725532227E0,-2.670446777E-1,1.012793884E1,1.049166259E1
5.170944333E0,-3.303779755E0,-3.866459656E-1,1.002106110E1,1.055869884E1
5.180883333E0,-3.694018250E0,-3.598516846E-1,9.705666962E0,1.039111328E1
5.190822333E0,-3.444636841E0,-2.727328491E-1,1.004441254E1,1.062215277E1
5.200761333E0,-3.145558777E0,-2.308200073E-1,1.007225464E1,1.055453132E1
5.210699333E0,-3.504512329E0,-1.181044006E-1,9.713899841E0,1.032741039E1
5.220638333E0,-4.006418610E0,-9.295669556E-2,9.824370117E0,1.061029119E1
5.230577333E0,-4.462669830E0,-1.722917175E-1,9.965227203E0,1.092020420E1
5.240516333E0,-4.848267975E0,-2.142045593E-1,1.001222946E1,1.112637968E1
5.250455333E0,-4.686604156E0,-3.228785706E-1,1.004426285E1,1.108854027E1
5.260394333E0,-4.347110138E0,-4.093986511E-1,1.015218842E1,1.105133039E1
5.270333333E0,-4.102668457E0,-3.784130859E-1,1.010024643E1,1.090825664E1
5.280272333E0,-2.620450745E0,-1.263372803E-1,1.000609222E1,1.034430301E1
5.290211333E0,4.399351501E-1,2.010319519E-1,9.894873505E0,9.906688572E0
5.300150333E0,5.851332092E-1,2.600093079E-1,9.882449341E0,9.903170739E0
5.310089333E0,-2.927911377E-1,2.154020691E-1,9.442514191E0,9.449507868E0
5.320028333E0,4.381388855E-1,2.365081787E-1,1.002869522E1,1.004104724E1
5.329967333E0,2.433938599E-1,2.321672058E-1,9.810449066E0,9.816213784E0
5.339906333E0,2.495310974E-1,2.465373230E-1,9.768835602E0,9.775131479E0
5.349845333E0,2.694396973E-1,2.335144043E-1,9.945168915E0,9.951558243E0
5.359784333E0,2.067201233E-1,2.143542480E-1,9.842332764E0,9.846836811E0
5.369723333E0,2.384541321E-1,2.438429260E-1,9.900262299E0,9.906135136E0
5.379661333E0,2.423460388E-1,2.311193848E-1,9.936037903E0,9.941679787E0
5.389600333E0,2.089654541E-1,2.345622253E-1,9.813891907E0,9.818918492E0
5.399539333E0,1.930984497E-1,2.170486450E-1,9.869875488E0,9.874150054E0
5.409478333E0,2.157014465E-1,2.103126526E-1,1.001103195E1,1.001556385E1
5.419417333E0,2.246827698E-1,2.219883728E-1,9.920919342E0,9.925945888E0
5.429356333E0,1.889071655E-1,2.421963501E-1,9.933942261E0,9.938689744E0
5.439295333E0,2.182461548E-1,2.257305908E-1,1.001896545E1,1.002388420E1
5.449234333E0,2.239343262E-1,2.462379456E-1,9.972112885E0,9.977665814E0
5.459173333E0,2.034269714E-1,2.463876343E-1,9.889035645E0,9.894196045E0
5.469112333E0,6.840774536E-2,1.980381775E-1,9.849068756E0,9.851297077E0
5.479051333E0,-8.801696777E-2,2.411485291E-1,9.770931244E0,9.774302889E0
5.488990333E0,-2.844085693E-1,2.276765442E-1,9.770182800E0,9.776972783E0
5.498929333E0,-4.258644104E-1,2.158511353E-1,9.924362183E0,9.935840022E0
5.508868333E0,-6.053411865E-1,2.486329651E-1,9.982740784E0,1.000416762E1
5.518807333E0,-8.542735291E-1,2.838098145E-1,9.920320587E0,9.961078848E0
5.528746333E0,-9.894424438E-1,3.227288818E-1,1.010413834E1,1.015759626E1
5.538685333E0,-1.018032990E0,3.528163147E-1,1.006746460E1,1.012495501E1
5.548624333E0,-8.991801453E-1,3.571572876E-1,9.829758911E0,9.877259059E0
5.558562333E0,-9.241781616E-1,2.769241333E-1,9.808802490E0,9.856135071E0
5.568501333E0,-1.051563263E0,1.692979431E-1,9.819580078E0,9.877175710E0
5.578440333E0,-1.365011444E0,-1.511856079E-2,9.882299652E0,9.976138092E0
5.588379333E0,-1.542691956E0,-1.727407837E-1,9.855655060E0,9.977157637E0
5.598318333E0,-1.619931335E0,-1.356179810E-1,9.914333038E0,1.004671933E1
5.608257333E0,-1.707050171E0,-5.763015747E-2,9.968520355E0,1.011378958E1
5.618196333E0,-1.799707489E0,-4.655319214E-2,9.877060547E0,1.003979279E1
5.628135333E0,-1.814975739E0,1.661544800E-2,9.971813507E0,1.013565378E1
5.638074333E0,-1.607956238E0,1.031355286E-1,9.995913391E0,1.012494171E1
5.648013333E0,-1.591340790E0,1.387614441E-1,9.863289185E0,9.991801328E0
5.657952333E0,-1.506018219E0,1.305285645E-1,9.886041870E0,1.000094758E1
5.667891333E0,-1.532962189E0,6.706054688E-2,9.963580627E0,1.008104206E1
5.677830333E0,-1.685345306E0,-1.975891113E-2,9.901908875E0,1.004433067E1
5.687769333E0,-1.660197601E0,-5.643264771E-2,9.786798248E0,9.926774938E0
5.697708333E0,-1.661095734E0,3.637435913E-2,1.019170624E1,1.032624996E1
5.707647333E0,-1.145567780E0,1.916015625E-2,9.970765686E0,1.003637689E1
5.717586333E0,-9.580078125E-1,1.019380188E-1,9.836195526E0,9.883264276E0
5.727525125E0,-1.040635986E0,4.340972900E-2,1.017673737E1,1.022989692E1
5.737463125E0,-1.358874207E0,-4.969665527E-2,9.810299377E0,9.904089193E0
5.747402125E0,-1.553170166E0,-1.481918335E-1,9.864337006E0,9.986963650E0
5.757341125E0,-1.716779938E0,-1.080752563E-1,9.932295685E0,1.008015432E1
5.767280125E0,-1.387315063E0,1.407073975E-2,9.791139221E0,9.888945764E0
5.777219125E0,-8.987310791E-1,1.703457642E-1,9.967622223E0,1.000950688E1
5.787158125E0,-9.530680847E-1,3.257226562E-1,9.920919342E0,9.971914290E0
5.797097125E0,-1.307381287E0,1.766326904E-1,9.865983582E0,9.953797113E0
5.807036125E0,-1.208586731E0,1.103205872E-1,9.843829651E0,9.918358469E0
5.816975125E0,-1.075513458E0,1.592687988E-1,9.879605255E0,9.939250261E0
5.826914125E0,-7.545808411E-1,2.573149109E-1,9.782307587E0,9.814741205E0
5.836853125E0,-5.483097839E-1,3.296145630E-1,9.855056305E0,9.875799925E0
5.846792125E0,-4.523593140E-1,4.073030090E-1,9.820627899E0,9.839474428E0
5.856731125E0,-4.343966675E-1,4.318519592E-1,9.949659576E0,9.968496490E0
5.866670125E0,-4.996609497E-1,3.806584167E-1,1.001657043E1,1.003624657E1
5.876609125E0,-5.860313416E-1,2.935395813E-1,1.000758911E1,1.002902977E1
5.886548125E0,-5.266049194E-1,2.802172852E-1,1.001282822E1,1.003058141E1
5.896487125E0,-4.279600525E-1,2.227368164E-1,1.004441254E1,1.005599248E1
5.906425125E0,-1.775308228E-1,1.730401611E-1,9.782756653E0,9.785897395E0
5.916364125E0,1.917512512E-1,2.127076721E-1,9.682914276E0,9.687148289E0
5.926303125E0,3.776646423E-1,2.089654541E-1,9.831255798E0,9.840725975E0
5.936242125E0,1.645079041E-1,1.269360352E-1,9.793384552E0,9.795588629E0
5.946181125E0,4.760101318E-2,8.711883545E-2,9.791588287E0,9.792091540E0
5.956120125E0,1.737886047E-1,1.095721436E-1,9.961784363E0,9.963902660E0
5.966059125E0,3.387455750E-1,2.062710571E-1,1.002106110E1,1.002890631E1
5.975998125E0,3.941304016E-1,2.869532776E-1,1.004501129E1,1.005683513E1
5.985937125E0,6.403683472E-1,4.077520752E-1,9.903854828E0,9.932908629E0
5.995876125E0,9.294172668E-1,5.542973328E-1,9.859546967E0,9.918756393E0
6.005815125E0,1.134341125E0,6.918612671E-1,9.740694122E0,9.830896388E0
6.015754125E0,1.224154358E0,6.963519287E-1,9.724677429E0,9.826128994E0
6.025693125E0,9.994715881E-1,5.739065552E-1,9.803114319E0,9.870631314E0
6.035632125E0,7.780819702E-1,3.826043701E-1,9.918973389E0,9.956798217E0
6.045571125E0,4.908293152E-1,1.956431580E-1,1.003558090E1,1.004948127E1
6.055510125E0,3.811074829E-1,5.837860107E-3,9.989027710E0,9.996296894E0
6.065449125E0,7.773335266E-1,-4.011657715E-2,1.011162277E1,1.014153696E1
6.075388125E0,1.216819611E0,1.146615601E-1,1.013647110E1,1.020988950E1
6.085326125E0,1.364861755E0,2.993774414E-1,9.937534790E0,1.003529133E1
6.095265125E0,1.174457703E0,2.002835083E-1,9.847422180E0,9.919233235E0
6.105204125E0,8.532257080E-1,9.684860229E-2,9.843230896E0,9.880615782E0
6.115143125E0,7.328759766E-1,9.894424438E-2,9.963580627E0,9.990987743E0
6.125082125E0,6.608757019E-1,6.122268677E-2,9.957742767E0,9.979836969E0
6.135021125E0,5.301974487E-1,7.888595581E-2,9.740843811E0,9.755581504E0
6.144960125E0,5.785469055E-1,5.942642212E-2,9.864636383E0,9.881765985E0
6.154899125E0,5.801934814E-1,5.972579956E-2,9.936187592E0,9.953291692E0
6.164838125E0,5.502557373E-1,7.304809570E-2,1.003153931E1,1.004688500E1
6.174777125E0,3.126997375E-1,4.999603271E-2,1.004052063E1,1.004551319E1
6.184716125E0,1.204994202E-1,-1.377136230E-2,9.969867554E0,9.970605237E0
6.194655125E0,-1.001417542E-1,-4.355941772E-2,9.889484711E0,9.890087646E0
6.204594125E0,-4.442761230E-1,-1.294807434E-1,9.931397552E0,9.942172996E0
6.214533125E0,-5.328918457E-1,-1.306782532E-1,9.996212769E0,1.001125967E1
6.224472125E0,-6.706054688E-2,-1.526824951E-2,1.015278717E1,1.015302012E1
6.234411125E0,9.280700684E-2,1.326242065E-1,1.007464966E1,1.007594998E1
6.244350125E0,3.278182983E-2,2.326162720E-1,1.004141876E1,1.004416625E1
6.254288125E0,4.490661621E-2,1.227447510E-1,1.001686981E1,1.001772248E1
6.264227125E0,-1.017883301E-1,-5.508544922E-2,9.804311829E0,9.804994936E0
6.274166125E0,2.499801636E-2,-2.604583740E-1,9.810149689E0,9.813638488E0
6.284105125E0,4.225712585E-1,-4.064048767E-1,9.750274200E0,9.767885051E0
6.294044125E0,7.387138367E-1,-4.315525818E-1,9.679621124E0,9.717355652E0
6.303983125E0,1.282682648E0,-4.071533203E-1,9.551936646E0,9.646270900E0
6.313922125E0,2.330803070E0,-1.778302002E-1,9.686357117E0,9.964425760E0
6.323861125E0,2.531835022E0,2.435435486E-1,9.702074432E0,1.002994269E1
6.333800125E0,2.502196655E0,4.923262024E-1,9.731712799E0,1.006029856E1
6.343739125E0,2.692600708E0,4.936734009E-1,9.943073273E0,1.031302662E1
6.353678125E0,2.916684723E0,5.013075256E-1,9.812245331E0,1.024883005E1
6.363617125E0,2.850073242E0,3.811074829E-1,9.610315247E0,1.003126710E1
6.373556125E0,2.790048065E0,1.010398865E-1,9.754914551E0,1.014657258E1
6.383495125E0,2.587968292E0,-1.857637024E-1,9.813742218E0,1.015094204E1
6.393434125E0,2.325863342E0,-4.713697815E-1,9.779762878E0,1.006357748E1
6.403373125E0,1.788181458E0,-5.394781494E-1,9.624236298E0,9.803803033E0
6.413312125E0,-4.415817261E-1,1.401086426E-1,1.009246262E1,1.010308995E1
6.423251125E0,-5.563929749E-1,2.198927307E-1,1.031879196E1,1.033612082E1
6.433189125E0,-4.035607910E-1,4.370910645E-2,1.019934036E1,1.020741474E1
6.443128125E0,-5.102888489E-1,1.919009399E-1,1.006357269E1,1.007832903E1
6.453067125E0,-3.942800903E-1,1.032852173E-1,9.999805298E0,1.000810824E1
6.463006125E0,-4.855902100E-1,2.281256104E-1,9.904154205E0,9.918674794E0
6.472945125E0,-4.631369019E-1,2.787203979E-1,9.701775055E0,9.716821500E0
6.482884125E0,-4.614903259E-1,2.447410583E-1,9.927655334E0,9.941388834E0
6.492823125E0,-5.671705627E-1,2.929408264E-1,9.993069305E0,1.001343752E1
6.502762125E0,-3.522175598E-1,5.622308350E-1,1.004995102E1,1.007182586E1
6.512701125E0,-2.794688416E-1,8.565188599E-1,9.923014984E0,9.963832283E0
6.522640125E0,-4.902305603E-1,8.943901062E-1,9.395960999E0,9.451155630E0
6.532579125E0,-8.488847351E-1,7.565267944E-1,9.289532318E0,9.358864716E0
6.542518125E0,-9.482780457E-1,6.420149231E-1,9.656569061E0,9.724234697E0
6.552457125E0,-9.668394470E-1,6.881190491E-1,9.566007385E0,9.639335228E0
6.562396125E0,-1.074315948E0,8.470884705E-1,9.453291779E0,9.551776750E0
6.572335125E0,-1.209484863E0,1.153201904E0,9.672585754E0,9.815887298E0
6.582274125E0,-1.117875366E0,1.789828033E0,9.859397278E0,1.008270025E1
6.592212125E0,-9.629475403E-1,2.352957001E0,1.026370651E1,1.057389928E1
6.602151125E0,-1.051263885E0,2.697839813E0,1.029124924E1,1.069080475E1
6.612090125E0,-7.640112305E-1,3.045716400E0,1.025442581E1,1.072442774E1
6.622029125E0,-3.430865479E-1,3.014431458E0,1.034902908E1,1.078456807E1
6.631968125E0,-1.796264648E-1,2.741399231E0,1.011581406E1,1.048223399E1
6.641907125E0,2.073188782E-1,2.562970276E0,9.999954987E0,1.032525532E1
6.651846125E0,3.921844482E-1,2.309846649E0,1.013407608E1,1.040137963E1
6.661785125E0,2.366578674E-1,2.220183105E0,9.758507080E0,1.001067832E1
6.671724125E0,1.466949463E-1,2.037712555E0,9.669591980E0,9.883056254E0
6.681663125E0,1.392105103E-1,1.907782745E0,9.669741669E0,9.857125266E0
6.691602125E0,1.065783691E-1,1.870659943E0,9.756261749E0,9.934554388E0
6.701541125E0,-2.517764282E-1,1.685045929E0,9.561217346E0,9.711830327E0
6.711480125E0,-5.177732849E-1,1.588646393E0,9.717642059E0,9.860246129E0
6.721419125E0,-5.215155029E-1,1.776056671E0,9.948312378E0,1.011905504E1
6.731358083E0,-2.067201233E-1,2.018253021E0,1.006536896E1,1.026780068E1
6.741297083E0,1.811233521E-2,2.013762360E0,1.021879990E1,1.041534628E1
6.751236083E0,1.047821045E-2,1.825154572E0,1.000339783E1,1.016854302E1
6.761174083E0,1.227447510E-2,1.526824951E0,9.933044128E0,1.004971197E1
6.771113083E0,-8.517288208E-2,9.134005737E-1,1.001731888E1,1.005923618E1
6.781052083E0,-4.740641785E-1,6.620732117E-1,9.457782440E0,9.492772328E0
6.790991083E0,-6.402186584E-1,6.712042236E-1,9.468560028E0,9.513885854E0
6.800930083E0,-4.592449951E-1,9.755213928E-1,9.619446259E0,9.679684616E0
6.810869083E0,-3.008743286E-1,1.207538910E0,9.768236847E0,9.847188770E0
6.820808083E0,-2.683918762E-1,1.372795258E0,9.867929535E0,9.966575858E0
6.830747083E0,-3.962260437E-1,1.399290161E0,9.819430389E0,9.926541251E0
6.840686083E0,-2.559677124E-1,1.469494171E0,9.711205444E0,9.825092558E0
6.850625083E0,-3.070115662E-1,1.414109344E0,9.725126495E0,9.832194399E0
6.860564083E0,-5.423222351E-1,1.254092102E0,9.871522064E0,9.965631353E0
6.870503083E0,-2.160008240E-1,1.216969299E0,9.855205994E0,9.932409366E0
6.880442083E0,3.195854187E-1,1.053209839E0,1.012748978E1,1.018712103E1
6.890381083E0,5.382806396E-1,8.159532166E-1,1.025891647E1,1.030538174E1
6.900320083E0,3.565585327E-1,6.456074524E-1,9.984686737E0,1.001188854E1
6.910259083E0,-1.945953369E-1,3.658392334E-1,9.616452484E0,9.625376048E0
6.920198083E0,-7.261399841E-1,1.510359192E-1,9.471104736E0,9.500100844E0
6.930137083E0,-8.675958252E-1,2.496807861E-1,9.600435791E0,9.642791628E0
6.940075083E0,-8.652008057E-1,3.376977539E-1,9.836195526E0,9.879947097E0
6.950014083E0,-9.744735718E-1,2.380050659E-1,1.011371841E1,1.016334322E1
6.959953083E0,-8.921447754E-1,3.595523071E-1,9.899663544E0,9.946282644E0
6.969892083E0,-6.424639893E-1,4.957690430E-1,9.886940002E0,9.920187979E0
6.979831083E0,-4.328997803E-1,5.126838684E-1,1.001043320E1,1.003289688E1
6.989770083E0,-5.718109131E-2,6.629713440E-1,1.002794678E1,1.005000086E1
6.999709083E0,3.462300110E-1,5.779481506E-1,1.006372238E1,1.008624843E1
7.009648083E0,4.150868225E-1,3.370989990E-1,1.010338989E1,1.011753034E1
7.019587083E0,2.538720703E-1,9.145980835E-2,9.958042145E0,9.961697610E0
7.029526083E0,1.907034302E-1,-2.212399292E-1,9.823471985E0,9.827813426E0
7.039465083E0,1.453477478E-1,-4.300556946E-1,9.681716766E0,9.692353347E0
7.049404083E0,-7.694000244E-2,-6.282435608E-1,9.632169800E0,9.652942805E0
7.059343083E0,-5.279521179E-1,-8.788224792E-1,9.714648285E0,9.768595277E0
7.069282083E0,-9.178912354E-1,-9.330097961E-1,9.821076965E0,9.907905145E0
7.079221083E0,-8.264314270E-1,-8.794212341E-1,9.814041595E0,9.887961521E0
7.089160083E0,-6.599775696E-1,-8.319699097E-1,1.003632935E1,1.009235607E1
7.099098083E0,-4.974156189E-1,-5.516029358E-1,9.963730316E0,9.991376777E0
7.109037083E0,-1.579216003E-1,-4.736151123E-1,9.954299927E0,9.966811804E0
7.118976083E0,-8.202941895E-2,-6.509962463E-1,9.913734283E0,9.935424117E0
7.128915083E0,-1.369651794E-1,-7.550299072E-1,9.880802765E0,9.910554621E0
7.138854083E0,7.469467163E-2,-7.481442261E-1,9.923464050E0,9.951906241E0
7.148793083E0,5.384303284E-1,-9.246272278E-1,1.003917343E1,1.009603120E1
7.158732083E0,5.146298218E-1,-9.683363342E-1,9.933493195E0,9.993838410E0
7.168671083E0,3.517684937E-2,-1.139879608E0,9.949809265E0,1.001495219E1
7.178610083E0,-3.100053406E-1,-1.308728485E0,9.785001984E0,9.877000424E0
7.188549083E0,-3.426374817E-1,-1.489103394E0,9.665849762E0,9.785881717E0
7.198488083E0,-3.661386108E-1,-1.670526123E0,9.538913727E0,9.691005629E0
7.208427083E0,-1.683998108E-1,-1.679956512E0,9.669292603E0,9.815591262E0
7.218366083E0,-5.882766724E-2,-1.593586121E0,9.993668060E0,1.012009776E1
7.228305083E0,-1.851649475E-1,-1.237925720E0,9.904902649E0,9.983678813E0
7.238244083E0,-8.083190918E-3,-1.003513184E0,1.009051666E1,1.014029736E1
7.248183083E0,2.847079468E-1,-9.243278503E-1,1.022688309E1,1.027251567E1
7.258122083E0,4.334985352E-1,-1.094823303E0,9.950707397E0,1.002013656E1
7.268060083E0,4.571493530E-1,-1.490001526E0,9.849218445E0,9.971769856E0
7.277999083E0,-6.182144165E-2,-2.038910065E0,9.453291779E0,9.670868709E0
7.287938083E0,-5.206173706E-1,-2.483635254E0,9.329349518E0,9.668311587E0
7.297877083E0,-6.750961304E-1,-2.590213623E0,9.596394196E0,9.962717649E0
7.307816083E0,-7.098239136E-1,-2.323767700E0,9.786648560E0,1.008376102E1
7.317755083E0,-6.204597473E-1,-1.991608429E0,1.003528152E1,1.024979754E1
7.327694083E0,-3.939807129E-1,-1.586550751E0,1.015129028E1,1.028207462E1
7.337633083E0,-1.692979431E-1,-1.359472961E0,1.006581802E1,1.015861807E1
7.347572083E0,-2.333647156E-1,-1.454225922E0,1.005608826E1,1.016337263E1
7.357511083E0,-3.577560425E-1,-1.774260406E0,9.939031677E0,1.010249177E1
7.367450083E0,-4.815486145E-1,-2.184407501E0,9.880653076E0,1.013068756E1
7.377389083E0,-5.325924683E-1,-2.483186188E0,9.674681396E0,1.000246612E1
7.387328083E0,-1.528321838E-1,-1.530267792E0,9.698930969E0,9.820098734E0
7.397267083E0,5.373825073E-2,8.502319336E-1,1.070214478E1,1.073599948E1
7.407206083E0,-1.026864624E-1,-2.182461548E-1,1.043075912E1,1.043354742E1
7.417145083E0,-5.014572144E-2,2.177970886E-1,1.012374756E1,1.012621424E1
7.427084083E0,4.580474854E-2,1.107696533E-2,1.022763153E1,1.022774010E1
7.437023083E0,-1.691482544E-2,8.158035278E-2,1.011476624E1,1.011510936E1
7.446961083E0,-1.407073975E-2,1.240919495E-1,9.884395294E0,9.885184223E0
7.456900083E0,-1.124162292E-1,-1.661544800E-2,9.795629883E0,9.796289006E0
7.466839083E0,-4.984634399E-2,-2.960842896E-1,9.823921051E0,9.828508299E0
7.476778083E0,1.990859985E-1,-1.238823853E0,9.671987000E0,9.753032979E0
7.486717083E0,1.465452576E-1,-2.492466888E0,9.688153381E0,1.000470802E1
7.496656083E0,-1.239422607E-1,-3.167712708E0,9.655072174E0,1.016219387E1
7.506595083E0,-8.741821289E-2,-3.159479828E0,9.667646027E0,1.017120123E1
7.516534083E0,-7.065307617E-2,-2.696642303E0,9.655221863E0,1.002497784E1
7.526473083E0,-4.652325439E-1,-1.957030334E0,9.542057190E0,9.751782630E0
7.536412083E0,-9.867480469E-1,-1.165326691E0,9.797875214E0,9.916149288E0
7.546351083E0,-1.051114197E0,-5.954617310E-1,1.005878265E1,1.013106728E1
7.556290083E0,-9.993218994E-1,-4.258644104E-1,1.015009277E1,1.020805506E1
7.566229083E0,-9.517208862E-1,-6.081852722E-1,1.004201752E1,1.010533413E1
7.576168083E0,-8.589138794E-1,-1.088686066E0,9.957443390E0,1.005353914E1
7.586107083E0,-7.384144592E-1,-1.459315338E0,9.640851746E0,9.778592923E0
7.596046083E0,-7.499404907E-1,-1.496587830E0,9.521400146E0,9.667432266E0
7.605984083E0,-8.214916992E-1,-1.442250824E0,9.830657043E0,9.969792072E0
7.615923083E0,-7.589218140E-1,-1.288071442E0,9.909692688E0,1.002183115E1
7.625862083E0,-4.966671753E-1,-1.179397430E0,1.020847137E1,1.028836937E1
7.635801083E0,-2.643502808E-1,-1.364861755E0,1.026565247E1,1.035936046E1
7.645740083E0,-2.055226135E-1,-1.525926819E0,9.922266541E0,1.004101915E1
7.655679083E0,1.242416382E-2,-1.587299194E0,9.643097076E0,9.772870321E0
7.665618083E0,2.899470520E-1,-1.670675812E0,9.737700348E0,9.884231636E0
7.675557083E0,4.346960449E-1,-1.679058380E0,9.737101593E0,9.890366279E0
7.685496083E0,5.505551147E-1,-1.594933319E0,9.538764038E0,9.686843789E0
7.695435083E0,5.619314575E-1,-1.539398804E0,9.737700348E0,9.874630307E0
7.705374083E0,4.456233215E-1,-1.408720551E0,9.919422455E0,1.002885914E1
7.715313083E0,3.875440979E-1,-1.293460236E0,1.014829651E1,1.023773177E1
7.725252083E0,6.641688538E-1,-1.368005219E0,1.012898666E1,1.024250601E1
7.735191583E0,6.864724731E-1,-1.339264984E0,9.697583771E0,9.813664257E0
7.745130583E0,3.201841736E-1,-1.179846497E0,9.642648010E0,9.719836229E0
7.755069583E0,-1.166075134E-1,-9.442364502E-1,9.841284943E0,9.887166890E0
7.765008583E0,-2.601589966E-1,-8.530760193E-1,9.976304169E0,1.001609037E1
7.774947583E0,-1.685494995E-1,-6.656657410E-1,1.007839188E1,1.010175740E1
7.784885583E0,-7.035369873E-3,-4.761598206E-1,9.996212769E0,1.000754952E1
7.794824583E0,-2.674937439E-1,-3.339555359E-1,1.001672012E1,1.002585464E1
7.804763583E0,-1.884580994E-1,-3.399430847E-1,9.760003967E0,9.767740537E0
7.814702583E0,3.981719971E-2,-2.383044434E-1,9.456135864E0,9.459221950E0
7.824641583E0,-2.475851440E-1,-6.137237549E-2,9.572294312E0,9.575692317E0
7.834580583E0,-5.060975647E-1,1.893562317E-1,9.991273041E0,1.000587465E1
7.844519583E0,-5.577401733E-1,3.173400879E-1,1.013976425E1,1.016004911E1
7.854458583E0,-6.551875305E-1,2.730322266E-1,1.018811371E1,1.021280952E1
7.864397583E0,-6.141728210E-1,2.631527710E-1,1.023796005E1,1.025974092E1
7.874336583E0,3.338058472E-2,1.781295776E-1,1.000145187E1,1.000309372E1
7.884275583E0,8.375083923E-1,3.861968994E-2,9.829908600E0,9.865597542E0
7.894214583E0,1.153950348E0,-7.185058594E-3,9.992171173E0,1.005858528E1
7.904153583E0,6.965016174E-1,1.031355286E-1,9.776170349E0,9.801492648E0
7.914092583E0,4.475692749E-2,2.715353394E-1,9.452992401E0,9.456997407E0
7.924031583E0,-4.043092346E-1,4.312532043E-1,9.562414856E0,9.580669244E0
7.933970583E0,-6.716532898E-1,7.057823181E-1,9.828711090E0,9.876882530E0
7.943909583E0,-7.523355103E-1,1.203796692E0,9.844428406E0,9.946250843E0
7.953847583E0,-3.005749512E-1,1.563199310E0,9.930200043E0,1.005697819E1
7.963786583E0,5.243595886E-1,1.624421997E0,1.025771896E1,1.039877388E1
7.973725583E0,7.864645386E-1,1.447489929E0,1.026774811E1,1.039905788E1
7.983664583E0,9.012757874E-1,1.285676422E0,9.965376892E0,1.008830999E1
7.993603583E0,8.662486267E-1,1.174008636E0,9.660760345E0,9.770310815E0
8.003542583E0,6.060896301E-1,8.538244629E-1,9.658964081E0,9.715551861E0
8.013481583E0,2.086660767E-1,8.081694031E-1,9.746831360E0,9.782504836E0
8.023420583E0,-2.779719543E-1,9.997709656E-1,9.797725525E0,9.852524339E0
8.033359583E0,-5.905220032E-1,1.008003845E0,9.968670044E0,1.003689048E1
8.043298583E0,-5.746549988E-1,9.867480469E-1,1.001537292E1,1.008025768E1
8.053237583E0,-5.328918457E-1,1.087787933E0,9.782157898E0,9.856869150E0
8.063176583E0,-4.427792358E-1,1.231638794E0,9.903106384E0,9.989219370E0
8.073115583E0,-2.817141724E-1,1.305585022E0,9.844727783E0,9.934917224E0
8.083054583E0,1.227447510E-2,1.337319031E0,9.757908325E0,9.849129288E0
8.092993583E0,-1.151106262E-1,1.257984009E0,9.771380310E0,9.852697468E0
8.102932583E0,-3.730242920E-1,1.193468170E0,9.895771637E0,9.974457864E0
8.112870583E0,-1.616638184E-1,1.133742371E0,1.009231293E1,1.015708064E1
8.122809583E0,-6.810836792E-2,1.093476105E0,9.897567902E0,9.958020843E0
8.132748583E0,1.074765015E-1,1.010997620E0,9.925709381E0,9.977643715E0
8.142687583E0,2.874023438E-1,1.026864624E0,1.012464569E1,1.018064347E1
8.152626583E0,3.158432007E-1,1.101110229E0,1.002240829E1,1.008765923E1
8.162565583E0,3.363505554E-1,1.161285095E0,9.887838135E0,9.961478693E0
8.172504583E0,4.022135925E-1,1.075214081E0,1.006012985E1,1.012541721E1
8.182443583E0,2.059716797E-1,1.205892334E0,9.708061981E0,9.784838685E0
8.192382583E0,-1.269360352E-1,1.411414948E0,9.531129913E0,9.635903815E0
8.202321583E0,-3.679348755E-1,1.604663086E0,9.639205170E0,9.778782951E0
8.212260583E0,-1.936972046E-1,1.876647491E0,9.754016418E0,9.934795454E0
8.222199583E0,-1.302291870E-1,1.854493561E0,9.899813232E0,1.007285501E1
8.232138583E0,-3.049159241E-1,1.706152039E0,9.856852570E0,1.000807030E1
8.242077583E0,-2.386038208E-1,1.498533783E0,9.884994049E0,1.000078210E1
8.252016583E0,-1.806742859E-1,1.241817627E0,9.859247589E0,9.938788520E0
8.261955583E0,-2.249821472E-1,1.150357819E0,9.824220428E0,9.893899489E0
8.271893583E0,-3.305126953E-1,1.307980042E0,9.800120544E0,9.892543309E0
8.281832583E0,-7.978408813E-2,1.541344757E0,9.845476227E0,9.965716798E0
8.291771583E0,6.631210327E-2,1.822460175E0,9.744885406E0,9.914058199E0
8.301710583E0,-2.559677124E-2,2.115550690E0,9.816885681E0,1.004228333E1
8.311649583E0,-2.984793091E-1,2.308349762E0,9.934690704E0,1.020370756E1
8.321588583E0,-2.570155334E-1,2.434088287E0,9.916578369E0,1.021417492E1
8.331527583E0,-3.170407104E-1,2.555036774E0,9.964927826E0,1.029215790E1
8.341466583E0,-4.794529724E-1,2.595901794E0,9.939331055E0,1.028391380E1
8.351405583E0,-5.310955811E-1,2.526146851E0,9.867181091E0,1.019925209E1
8.361344583E0,-3.820056152E-1,2.328258362E0,9.924511871E0,1.020111029E1
8.371283583E0,-5.822891235E-1,2.182611237E0,9.804012451E0,1.006089025E1
8.381222583E0,-6.809339905E-1,1.965113525E0,9.914931793E0,1.013070653E1
8.391161583E0,-7.458988953E-1,1.588197327E0,9.877359924E0,1.003199756E1
8.401100583E0,-6.691085815E-1,8.933422852E-1,9.775721283E0,9.839232355E0
8.411039583E0,-3.141966248E-1,1.975891113E-2,9.516310730E0,9.521516678E0
8.420978583E0,-2.621049500E-1,3.772155762E-1,9.759105835E0,9.769909789E0
8.430916583E0,1.496887207E-3,4.969665527E-2,9.627828827E0,9.627957204E0
8.440855583E0,3.092568970E-1,-1.281335449E-1,9.698032837E0,9.703808476E0
8.450794583E0,3.595523071E-1,1.525328064E-1,9.936636658E0,9.944309538E0
8.460733583E0,6.227050781E-1,1.353186035E-1,9.954299927E0,9.974675923E0
8.470672583E0,9.753717041E-1,1.294807434E-1,1.007270370E1,1.012064598E1
8.480611583E0,1.390009460E0,9.639953613E-2,9.996811523E0,1.009344638E1
8.490550583E0,1.637744293E0,9.160949707E-2,9.879605255E0,1.001484891E1
8.500489583E0,1.534758453E0,1.092727661E-1,9.806706848E0,9.926677352E0
8.510428583E0,1.480271759E0,1.508862305E-1,9.854607239E0,9.966305984E0
8.520367583E0,1.698368225E0,2.490820312E-1,9.742340698E0,9.892406116E0
8.530306583E0,2.226919098E0,3.465293884E-1,9.817634125E0,1.007299315E1
8.540245583E0,2.662662964E0,3.067121887E-1,1.000130219E1,1.035422097E1
8.550184583E0,2.739453278E0,2.168989563E-1,9.853559418E0,1.022957881E1
8.560123583E0,2.657573547E0,2.460882568E-1,9.667646027E0,1.002928892E1
8.570062583E0,2.590363312E0,2.383044434E-1,9.699829102E0,1.004258212E1
8.580001583E0,2.573448486E0,3.113525391E-1,9.729617157E0,1.006901324E1
8.589939583E0,2.565215607E0,4.617897034E-1,9.685159607E0,1.002975062E1
8.599878583E0,2.719095612E0,4.908293152E-1,9.814191284E0,1.019572189E1
8.609817583E0,2.628833313E0,4.197271729E-1,9.792636108E0,1.014803712E1
8.619756583E0,2.168839874E0,2.902464294E-1,9.791438599E0,1.003296463E1
8.629695583E0,1.713636475E0,2.118095398E-1,9.943971405E0,1.009276873E1
8.639634583E0,1.388662262E0,2.124082947E-1,1.000743942E1,1.010556005E1
8.649573583E0,1.215173035E0,2.216889954E-1,1.004995102E1,1.012557687E1
8.659512583E0,1.399739227E0,3.101550293E-1,1.013587234E1,1.023676581E1
8.669451583E0,1.866468658E0,4.490661621E-1,9.958790588E0,1.014213368E1
8.679390583E0,2.143392792E0,5.378315735E-1,9.836494904E0,1.008166789E1
8.689329583E0,1.875899048E0,5.307962036E-1,9.734107819E0,9.927416425E0
8.699268583E0,1.491797791E0,4.691244507E-1,9.934990082E0,1.005731407E1
8.709207583E0,1.234333191E0,3.592529297E-1,1.017089951E1,1.025182120E1
8.719146583E0,9.142987061E-1,2.010319519E-1,1.005683670E1,1.010031289E1
8.729085833E0,6.171665955E-1,1.456471252E-1,9.933792572E0,9.954011380E0
8.739024833E0,6.489006042E-1,1.431024170E-1,9.822873230E0,9.845323194E0
8.748962833E0,8.943901062E-1,1.176553345E-1,9.921518097E0,9.962444368E0
8.758901833E0,8.967851257E-1,1.196012878E-1,9.791438599E0,9.833147912E0
8.768840833E0,6.786886597E-1,4.655319214E-2,9.754166107E0,9.777859783E0
8.778779833E0,3.950285339E-1,-1.975891113E-1,1.003498215E1,1.004469789E1
8.788718833E0,-9.205856323E-2,-3.329077148E-1,9.938732300E0,9.944732377E0
8.798657833E0,-4.680766296E-1,-3.766168213E-1,9.796528015E0,9.814932354E0
8.808596833E0,-3.480262756E-1,-2.375559998E-1,9.856553192E0,9.865556040E0
8.818535833E0,2.357597351E-1,-1.166075134E-1,1.004486160E1,1.004830456E1
8.828474833E0,9.383985901E-1,-1.056802368E-1,1.011641281E1,1.016039214E1
8.838413833E0,1.152902527E0,-7.813751221E-2,9.919721832E0,9.986799835E0
8.848352833E0,6.176156616E-1,-5.987548828E-4,9.813293152E0,9.832709288E0
8.858291833E0,-9.056167603E-2,1.145118713E-1,9.977501678E0,9.978569744E0
8.868230833E0,-6.806346130E-1,1.796264648E-3,1.030247589E1,1.032493468E1
8.878169833E0,-1.187480621E0,-9.280700684E-2,1.001252884E1,1.008312735E1
8.888108833E0,-1.280736694E0,2.679428101E-2,9.977202301E0,1.005910385E1
8.898046833E0,-1.164727936E0,1.730401611E-1,1.016610947E1,1.023407620E1
8.907985833E0,-8.672964478E-1,4.531077576E-1,9.952353973E0,1.000034296E1
8.917924833E0,-7.011419678E-1,5.364843750E-1,1.004126907E1,1.008000497E1
8.927863833E0,-1.044527893E0,3.239263916E-1,1.018212616E1,1.024068650E1
8.937802833E0,-1.220861206E0,2.903961182E-1,9.902058563E0,9.981262234E0
8.947741833E0,-1.109193420E0,2.297721863E-1,9.914183350E0,9.978684121E0
8.957680833E0,-1.043180695E0,1.435514832E-1,9.944270782E0,9.999867718E0
8.967619833E0,-7.649093628E-1,2.309696960E-1,9.745484161E0,9.778184641E0
8.977558833E0,-5.575904846E-1,2.254312134E-1,9.910141754E0,9.928375293E0
8.987497833E0,-5.203179932E-1,1.213975525E-1,1.002046234E1,1.003469649E1
8.997436833E0,-8.201445007E-1,5.373825073E-2,9.829908600E0,9.864209440E0
9.007375833E0,-8.598120117E-1,9.580078125E-3,9.922565918E0,9.959753153E0
9.017314833E0,-1.311572571E0,-1.845661926E-1,9.997859344E0,1.008521089E1
9.027253833E0,-2.113904114E0,-2.764750671E-1,9.936786346E0,1.016291060E1
9.037191833E0,-2.848127289E0,-2.962339783E-1,9.885443115E0,1.029182050E1
9.047130833E0,-3.247796173E0,-1.451980591E-1,9.827663269E0,1.035143603E1
9.057069833E0,-3.066672821E0,6.182144165E-2,9.895771637E0,1.036024133E1
9.067008833E0,-2.878663788E0,1.924996948E-1,1.002854553E1,1.043530004E1
9.076947833E0,-2.798730011E0,3.447331238E-1,9.930349731E0,1.032296355E1
9.086886833E0,-2.894381104E0,3.644920349E-1,9.990973663E0,1.040816272E1
9.096825833E0,-3.343746643E0,2.326162720E-1,9.979297943E0,1.052716198E1
9.106764833E0,-4.075574799E0,8.951385498E-2,1.001088226E1,1.080907426E1
9.116703833E0,-4.778812408E0,-2.395019531E-2,1.004800507E1,1.112654607E1
9.126642833E0,-5.467081146E0,-8.652008057E-2,1.004905289E1,1.144027648E1
9.136581833E0,-5.707630920E0,-1.351689148E-1,1.002600082E1,1.153759134E1
9.146520833E0,-3.488046570E0,-6.601272583E-2,9.842482452E0,1.044247516E1
9.156459833E0,1.495689697E0,2.547702026E-1,1.008408005E1,1.019758138E1
9.166398833E0,-3.233276367E-2,2.049238586E-1,9.898016968E0,9.900190861E0
9.176337833E0,-2.695893860E-1,2.287243652E-1,9.395661621E0,9.402310916E0
9.186275833E0,4.272116089E-1,1.761836243E-1,1.052521271E1,1.053535253E1
9.196214833E0,1.172062683E-1,1.986369324E-1,9.898316345E0,9.901003000E0
9.206153833E0,1.643582153E-1,2.210902405E-1,9.976603546E0,9.980406446E0
9.216092833E0,2.658471680E-1,2.353106689E-1,1.013048355E1,1.013670276E1
9.226031833E0,2.842588806E-1,2.790197754E-1,9.933493195E0,9.941475856E0
9.235970833E0,2.321672058E-1,3.077600098E-1,9.868079224E0,9.875606584E0
9.245909833E0,1.252894592E-1,2.477348328E-1,9.848470001E0,9.852382015E0
9.255848833E0,1.193019104E-1,1.811233521E-1,1.025981461E1,1.026210672E1
9.265787833E0,1.092727661E-1,2.644999695E-1,9.926607513E0,9.930731972E0
9.275726833E0,1.013692017E0,3.793112183E-1,1.292352539E1,1.296876852E1
9.285665833E0,1.401086426E-1,9.954299927E-2,9.939181366E0,9.940667255E0
9.295604833E0,-1.233884125E0,4.150868225E-1,5.587879944E0,5.737522930E0
9.305543833E0,-7.822732544E-1,6.521937561E-1,6.527925110E0,6.606898999E0
9.315482833E0,-4.326004028E-2,1.871109009E-1,1.111992599E1,1.112158424E1
9.325421833E0,4.108955383E-1,3.338058472E-2,1.248882935E1,1.249563155E1
9.335359833E0,-3.317102051E-1,3.400927734E-1,9.154812469E0,9.167130746E0
9.345298833E0,-8.767268372E-1,3.864962769E-1,8.664432220E0,8.717248134E0
9.355237833E0,-1.404080200E-1,2.606080627E-1,1.053075119E1,1.053491109E1
9.365176833E0,6.985972595E-1,4.390370178E-1,1.082039886E1,1.085181198E1
9.375115833E0,4.361929321E-1,4.861889648E-1,9.906249847E0,9.927760574E0
9.385054833E0,-2.601589966E-1,3.438349915E-1,9.824968872E0,9.834425176E0
9.394993833E0,-8.607101440E-2,4.085005188E-1,1.003318588E1,1.004186735E1
9.404932833E0,-6.417155457E-1,6.981481934E-1,9.980944519E0,1.002588965E1
9.414871833E0,-6.614744568E-1,1.003662872E0,9.682465210E0,9.756793539E0
9.424810833E0,-4.327500916E-1,5.746549988E-1,1.034813095E1,1.037310538E1
9.434749833E0,-5.113366699E-1,3.712280273E-2,1.081770447E1,1.082984641E1
9.444688833E0,-5.625302124E-1,1.017883301E-2,1.034977753E1,1.036505855E1
9.454627833E0,-4.189787292E-1,7.768844604E-2,1.048180298E1,1.049046102E1
9.464566833E0,2.170486450E-2,1.401086426E-1,1.037971527E1,1.038068353E1
9.474504833E0,4.526586914E-1,1.246907043E-1,9.522298279E0,9.533866591E0
9.484443833E0,5.815406799E-1,-1.703457642E-1,8.381520538E0,8.403397752E0
9.494382833E0,2.314187622E-1,-2.595602417E-1,6.143374786E0,6.153208913E0
9.504321833E0,2.977308655E-1,5.275030518E-1,7.798782349E0,7.822270084E0
9.514260833E0,1.203197937E0,9.333091736E-1,1.583033066E1,1.590339964E1
9.524199833E0,3.172203369E0,1.089733887E-1,1.691587326E1,1.721108705E1
9.534138833E0,3.418740692E0,1.041683807E0,8.862470398E0,9.555954930E0
9.544077833E0,2.405497742E-1,2.082469482E0,2.693349152E0,3.413015235E0
9.554016833E0,-5.191055145E0,1.266815643E0,1.116408417E1,1.237694028E1
9.563955833E0,-7.201224976E0,1.117875366E0,9.936486969E0,1.232238044E1
9.573894833E0,6.416856079E0,2.172432404E0,1.577000610E1,1.716358345E1
9.583833833E0,9.432035980E0,1.639091492E-1,1.270243515E1,1.582220047E1
9.593772833E0,5.954766998E0,-3.270698547E-1,5.624254303E0,8.197466753E0
9.603711833E0,3.316503296E0,-3.791615295E-1,4.552932129E0,5.645542361E0
9.613649833E0,2.086660767E0,-1.974394226E-1,3.712729340E0,4.263507316E0
9.623588833E0,2.006128235E0,-4.068539429E-1,3.822002106E0,4.335640751E0
9.633527833E0,2.663561096E0,-7.830216980E-1,6.005212097E0,6.615909085E0
9.643466833E0,3.604504395E0,-9.758207703E-1,7.924820251E0,8.760562432E0
9.653405833E0,4.192032623E0,-6.322851562E-1,7.726632385E0,8.813272380E0
9.663344833E0,5.612728271E0,-1.559756470E-1,1.025906616E1,1.169510520E1
9.673283833E0,5.742807770E0,-9.395960999E-1,1.970622070E1,2.054745279E1
9.683222833E0,-1.276470566E1,-7.664062500E-2,1.989887009E1,2.364124817E1
9.693161833E0,-2.314337311E0,-3.752696228E-1,1.125539429E1,1.149699461E1
9.703100833E0,2.739004211E0,3.125500488E-1,5.493725739E0,6.146613221E0
9.713039833E0,1.290167084E0,2.923420715E-1,4.199666748E0,4.403089346E0
9.722978833E0,1.723515930E0,4.017645264E-1,5.618117065E0,5.890259863E0
9.732917375E0,2.725382538E0,5.818400574E-1,9.228459320E0,9.640057534E0
9.742856375E0,3.873045959E0,6.698570251E-1,1.345297440E1,1.401540986E1
9.752794375E0,7.059320068E-1,2.874023438E-1,1.306932220E1,1.309152867E1
9.762733375E0,-5.631589050E0,3.947291565E-1,9.095236359E0,1.070485548E1
9.772672375E0,-2.122586060E0,8.114625549E-1,9.012308807E0,9.294382879E0
9.782611375E0,2.886896667E0,-5.897735596E-2,9.267528076E0,9.706942224E0
9.792550375E0,2.804268494E0,1.447489929E-1,1.025697052E1,1.063439318E1
9.802489375E0,5.324427795E-1,4.001179504E-1,1.018841309E1,1.021015920E1
9.812428375E0,-1.807940369E0,6.095324707E-1,8.383765869E0,8.598122374E0
9.822367375E0,-1.656156006E0,3.487747192E-1,1.035247192E1,1.048990808E1
9.832306375E0,1.521136780E0,1.324745178E-1,1.169473068E1,1.179398713E1
9.842245375E0,1.194066925E0,3.041674805E-1,9.658215637E0,9.736500551E0
9.852184375E0,-2.465373230E-1,5.102888489E-1,8.078400879E0,8.098255128E0
9.862123375E0,-7.165599060E-1,3.490740967E-1,9.516460419E0,9.549781658E0
9.872062375E0,1.784289551E-1,2.636018372E-1,1.140807678E1,1.141251676E1
9.882001375E0,6.738986206E-1,3.034190369E-1,1.049302963E1,1.051902435E1
9.891939375E0,5.972579956E-2,3.643423462E-1,8.770561523E0,8.778329109E0
9.901878375E0,-2.348616028E-1,3.707789612E-1,9.224717102E0,9.235152550E0
9.911817375E0,4.415817261E-2,2.957849121E-1,1.065349594E1,1.065769273E1
9.921756375E0,2.701881409E-1,2.930905151E-1,1.035621414E1,1.036388320E1
9.931695375E0,-3.427871704E-2,3.845503235E-1,9.074279938E0,9.082489217E0
9.941634375E0,-7.783813477E-2,3.552113342E-1,8.918154602E0,8.925565269E0
9.951573375E0,1.330732727E-1,3.264710999E-1,9.949809265E0,9.956053249E0
9.961512375E0,2.692900085E-1,3.146456909E-1,1.045336212E1,1.046156292E1
9.971451375E0,-1.892065430E-1,3.541635132E-1,9.954748993E0,9.962843892E0
9.981390375E0,-1.010398865E-1,5.146298218E-1,9.299711151E0,9.314487662E0
9.991329375E0,-2.824626160E-1,2.921923828E-1,1.012973511E1,1.013788414E1
1.000126837E1,-7.849676514E-1,5.264552307E-1,1.063987427E1,1.068177203E1
1.001120737E1,-1.143921204E0,1.071172485E0,1.012823822E1,1.024876459E1
1.002114537E1,-1.515747986E0,1.548978882E0,9.792336731E0,1.002929141E1
1.003108437E1,-3.463796997E-1,1.535806274E0,1.031460068E1,1.043406282E1
1.004102338E1,1.135538635E0,9.945318604E-1,1.010368927E1,1.021582490E1
1.005096238E1,1.657353516E0,1.145118713E-1,9.688003693E0,9.829412454E0
1.006090138E1,1.472637634E0,-7.432044983E-1,9.301806793E0,9.446937289E0
1.007084038E1,4.517605591E-1,-1.089135132E0,9.698930969E0,9.770341083E0
1.008077938E1,-1.451980591E-1,-5.674699402E-1,1.037253021E1,1.038905615E1
1.009071838E1,1.784289551E-1,1.109193420E-1,1.080737595E1,1.080941788E1
1.010065738E1,-1.032852173E-2,4.343966675E-1,1.030023056E1,1.030939168E1
1.011059638E1,8.622070312E-2,6.572831726E-1,1.011880783E1,1.014049935E1
1.012053537E1,7.352709961E-1,5.710624695E-1,1.036609360E1,1.040781592E1
1.013047437E1,1.859882355E0,2.032772827E-1,1.163470551E1,1.178417822E1
1.014041337E1,1.725761261E0,1.007405090E-1,1.152408554E1,1.165302313E1
1.015035237E1,1.467398529E0,5.315446472E-1,1.074016571E1,1.085296999E1
1.016029037E1,1.287772064E0,6.836283875E-1,1.047701294E1,1.057797262E1
1.017022937E1,1.165326691E0,3.873944092E-1,1.073777069E1,1.080776481E1
1.018016837E1,3.974235535E-1,-2.354603577E-1,1.113459549E1,1.114417353E1
1.019010737E1,-3.198847961E-1,-7.041357422E-1,1.172631500E1,1.175179122E1
1.020004637E1,-6.306385803E-1,-5.980064392E-1,1.178095139E1,1.181296458E1
1.020998537E1,-7.309300232E-1,-1.504371643E-1,1.123788071E1,1.126263081E1
1.021992437E1,-5.608836365E-1,4.248165894E-1,1.083327209E1,1.085609708E1
1.022986337E1,-2.288740540E-1,8.622070313E-1,1.184217407E1,1.187572613E1
1.023980237E1,3.442840576E-3,8.665480042E-1,1.376567413E1,1.379292216E1
1.024974137E1,-3.965254211E-1,6.673123169E-1,1.477218109E1,1.479256139E1
1.025968037E1,-1.065933380E0,6.891668701E-1,1.423060730E1,1.428710429E1
1.026961938E1,-1.125958557E0,8.860075378E-1,1.368559067E1,1.376038459E1
1.027955838E1,-6.887178040E-1,9.716294861E-1,1.344025085E1,1.349291440E1
1.028949638E1,-1.362167358E-1,9.629475403E-1,1.319536011E1,1.323115079E1
1.029943538E1,1.580712891E-1,1.009800110E0,1.272743317E1,1.276840780E1
1.030937438E1,1.140628052E-1,8.833131409E-1,1.243419296E1,1.246605018E1
1.031931338E1,-3.876937866E-1,6.610253906E-1,1.260393997E1,1.262721521E1
1.032925238E1,-1.154698792E0,4.610412598E-1,1.297591644E1,1.303534794E1
1.033919138E1,-1.874402161E0,5.530998230E-1,1.338471634E1,1.352663795E1
1.034913038E1,-2.329306183E0,7.939489746E-1,1.396865204E1,1.418376755E1
1.035906937E1,-2.388582916E0,9.184899902E-1,1.444106964E1,1.466606439E1
1.036900837E1,-2.407443695E0,8.819659424E-1,1.439242081E1,1.461900906E1
1.037894737E1,-2.491868134E0,8.890013123E-1,1.400637360E1,1.425406017E1
1.038888637E1,-2.432441711E0,9.892927551E-1,1.372495880E1,1.397390307E1
1.039882537E1,-2.326162720E0,8.467890930E-1,1.338935669E1,1.361627546E1
1.040876437E1,-2.312690735E0,4.104464722E-1,1.297876053E1,1.318958792E1
1.041870237E1,-2.140249329E0,2.182461548E-1,1.265408569E1,1.283566061E1
1.042864137E1,-1.794618073E0,3.011737061E-1,1.220127731E1,1.233622826E1
1.043858037E1,-1.474733276E0,3.683839417E-1,1.157872192E1,1.167807117E1
1.044851937E1,-1.145268402E0,4.604425049E-1,1.104418350E1,1.111294903E1
1.045845837E1,-8.000862122E-1,5.601351929E-1,1.099089432E1,1.103420352E1
1.046839737E1,-8.069718933E-1,7.770341492E-1,1.079659836E1,1.085456226E1
1.047833637E1,-1.159039764E0,1.036444702E0,1.071801178E1,1.083020624E1
1.048827537E1,-1.492695923E0,1.117875366E0,1.069855225E1,1.085987139E1
1.049821437E1,-1.448388062E0,1.066382446E0,1.028421387E1,1.044030911E1
1.050815338E1,-9.041198730E-1,1.033600616E0,9.433832245E0,9.533255153E0
1.051809238E1,-2.637515259E-1,1.117725677E0,8.080795898E0,8.161993501E0
1.052803138E1,6.271957397E-2,1.218316498E0,6.696474609E0,6.806687963E0
1.053797038E1,6.271957397E-2,1.201401672E0,5.831423492E0,5.954225363E0
1.054790838E1,-8.921447754E-2,1.102457428E0,5.498366089E0,5.608511500E0
1.055784738E1,-3.993695068E-1,8.509803772E-1,5.254074097E0,5.337504868E0
1.056778638E1,-6.243516541E-1,7.622149658E-1,4.971910858E0,5.068597856E0
1.057772538E1,-5.194198608E-1,8.765771484E-1,4.774920502E0,4.882422584E0
1.058766438E1,-4.730163574E-1,1.147214355E0,4.489464111E0,4.657803480E0
1.059760337E1,-5.809419250E-1,1.351539459E0,4.184248810E0,4.435323047E0
1.060754237E1,-8.719367981E-1,1.381028137E0,4.125421143E0,4.436959781E0
1.061748137E1,-1.018631744E0,1.441203003E0,4.271217957E0,4.621469416E0
1.062742037E1,-9.913883972E-1,1.480122070E0,4.850363617E0,5.167169391E0
1.063735937E1,-1.050814819E0,1.322799225E0,5.213807831E0,5.480675293E0
1.064729837E1,-9.297166443E-1,1.095571747E0,5.469176788E0,5.654780741E0
1.065723737E1,-8.640032959E-1,9.110055542E-1,5.373974762E0,5.518698901E0
1.066717637E1,-9.539662170E-1,8.318202209E-1,4.702171783E0,4.869537545E0
1.067711437E1,-9.132508850E-1,9.916877747E-1,4.332141266E0,4.537060697E0
1.068705337E1,-7.846682739E-1,1.327589264E0,4.618944855E0,4.869584081E0
1.069699237E1,-8.024812317E-1,1.613045654E0,5.092859344E0,5.402139272E0
1.070693137E1,-9.033714294E-1,1.820514221E0,5.109774170E0,5.499103930E0
1.071687037E1,-9.421408081E-1,2.008074188E0,4.960684204E0,5.434002118E0
1.072680937E1,-8.797206116E-1,1.989063721E0,5.059927826E0,5.507554125E0
1.073674821E1,-6.990463257E-1,1.716031494E0,5.775439911E0,6.065404852E0
1.074668721E1,-5.752537537E-1,1.188229065E0,7.105124817E0,7.226728434E0
1.075662621E1,-6.869215393E-1,7.354206848E-1,7.747139740E0,7.812226247E0
1.076656521E1,-1.120270386E0,7.445516968E-1,7.250771942E0,7.374486879E0
1.077650421E1,-1.404229889E0,1.159488831E0,6.586453400E0,6.833567466E0
1.078644321E1,-1.084045715E0,1.447938995E0,6.819818115E0,7.055607810E0
1.079638121E1,-8.412506104E-1,1.386716309E0,7.157964935E0,7.339424141E0
1.080632021E1,-5.836363220E-1,1.158890076E0,7.365134125E0,7.478559904E0
1.081625921E1,-4.430786133E-1,1.117725677E0,7.215295715E0,7.314787872E0
1.082619821E1,-5.267546082E-1,1.235979767E0,7.010671234E0,7.138251015E0
1.083613721E1,-7.532336426E-1,1.308129730E0,7.275769958E0,7.430706077E0
1.084607621E1,-1.031205597E0,1.281634827E0,7.811805267E0,7.983124347E0
1.085601521E1,-1.112486572E0,1.397793274E0,8.148006134E0,8.341549998E0
1.086595421E1,-9.422904968E-1,1.455573120E0,8.483907623E0,8.659289408E0
1.087589321E1,-7.444020081E-1,1.410965881E0,8.513096924E0,8.661280408E0
1.088583221E1,-5.785469055E-1,1.427731018E0,8.167914734E0,8.311916956E0
1.089577121E1,-4.336482239E-1,1.565444641E0,7.476053467E0,7.650493000E0
1.090571021E1,-4.605921936E-1,1.504221954E0,6.998546448E0,7.173177904E0
1.091564921E1,-5.923182678E-1,1.102756805E0,7.010820923E0,7.121693866E0
1.092558821E1,-7.309300232E-1,6.523434448E-1,7.244934082E0,7.310874128E0
1.093552621E1,-8.655001831E-1,3.812571716E-1,7.658973083E0,7.717144309E0
1.094546521E1,-1.048419800E0,1.308279419E-1,7.831564178E0,7.902512101E0
1.095540421E1,-1.191372528E0,1.287322998E-2,7.783065033E0,7.873730725E0
1.096534321E1,-1.274749146E0,4.730163574E-2,7.983498230E0,8.084767580E0
1.097528221E1,-1.235381012E0,1.104702759E-1,8.265811157E0,8.358349359E0
1.098522121E1,-1.008752289E0,2.338137817E-1,8.631201324E0,8.693094177E0
1.099516021E1,-8.146060181E-1,1.544787598E-1,9.069789276E0,9.107608038E0
1.100509921E1,-7.644602966E-1,7.035369873E-2,8.859626312E0,8.892824500E0
1.101503821E1,-7.018904114E-1,1.312770081E-1,8.617579651E0,8.647112977E0
1.102497721E1,-5.638774109E-1,3.635939026E-1,8.036787415E0,8.064744894E0
1.103491621E1,-3.002755737E-1,5.011578369E-1,7.465575256E0,7.488400263E0
1.104485521E1,-1.112187195E-1,3.022215271E-1,7.302713928E0,7.309811090E0
1.105479321E1,-1.862127686E-1,-3.547622681E-2,7.413782959E0,7.416206006E0
1.106473221E1,-5.369334412E-1,-1.115180969E-1,7.631130981E0,7.650810013E0
1.107467121E1,-8.848100281E-1,-1.338217163E-1,7.780220947E0,7.831515500E0
1.108461021E1,-1.192570038E0,-6.062393188E-1,7.949069824E0,8.060859785E0
1.109454921E1,-1.233285370E0,-1.231489105E0,8.463549957E0,8.641136274E0
1.110448821E1,-1.384470978E0,-1.616638184E0,8.461454315E0,8.725049457E0
1.111442721E1,-1.591041412E0,-1.840722198E0,8.433911591E0,8.777843454E0
1.112436621E1,-1.759740601E0,-1.858086090E0,8.487649841E0,8.865064621E0
1.113430521E1,-1.839824066E0,-1.785936127E0,8.479716339E0,8.858900024E0
1.114424421E1,-1.768572235E0,-1.699416046E0,8.740324402E0,9.077947637E0
1.115418321E1,-1.570084991E0,-1.331481171E0,9.026978302E0,9.258744313E0
1.116412221E1,-1.307381287E0,-1.088536377E0,9.441765747E0,9.593805173E0
1.117406021E1,-8.777746582E-1,-1.596579895E0,1.014650024E1,1.030878377E1
1.118399921E1,-4.064048767E-1,-2.245031433E0,1.048554520E1,1.073088948E1
1.119393821E1,-8.038284302E-2,-2.487527161E0,1.072040680E1,1.100551565E1
1.120387721E1,-4.685256958E-2,-2.598296814E0,1.082249451E1,1.113012708E1
1.121381621E1,-2.936892700E-1,-2.768343201E0,1.079435303E1,1.114755734E1
1.122375521E1,-4.200265503E-1,-2.883154449E0,1.106783432E1,1.144490972E1
1.123369421E1,-5.098397827E-1,-2.826422424E0,1.154459290E1,1.189647954E1
1.124363321E1,-6.171665955E-1,-2.482737122E0,1.157782379E1,1.185710260E1
1.125357221E1,-6.114784241E-1,-1.990710297E0,1.137125336E1,1.156037353E1
1.126351121E1,-5.427713013E-1,-1.573827209E0,1.194590836E1,1.206135395E1
1.127345021E1,-7.896080017E-1,-7.219487000E-1,3.620461212E1,3.622041730E1
1.128338921E1,-5.261558533E-1,2.442171478E0,5.952940796E1,5.958180472E1
1.129332821E1,-2.256108398E0,2.351609802E0,1.720267685E1,1.750863172E1
1.130326621E1,-3.222798157E-1,8.634793854E0,-1.251936584E1,1.521177341E1
1.131320521E1,-2.050735474E-1,7.436984711E0,5.657634888E0,9.346637324E0
1.132314421E1,-1.139131165E-1,-3.778592377E0,3.607992142E1,3.627742364E1
1.133308321E1,-6.360273743E-1,-1.836381226E0,1.807805649E1,1.818221530E1
1.134302221E1,1.811233521E-2,-3.477268982E-1,6.665638733E-1,7.520302185E-1
1.135296121E1,3.667373657E-2,-1.263372803E0,7.719447327E-1,1.480997796E0
1.136290021E1,8.660989380E-1,3.552113342E-1,7.295379181E0,7.355192714E0
1.137283921E1,1.236428833E0,1.438508606E-1,1.206865311E1,1.213267642E1
1.138277821E1,-1.968406677E-1,-5.444178772E-1,1.072265213E1,1.073826829E1
1.139271721E1,6.167175293E-2,5.502557373E-1,7.773484955E0,7.793179911E0
1.140265621E1,4.698728943E-1,1.316811676E0,8.193511505E0,8.311943474E0
1.141259521E1,-2.712359619E-1,4.200265503E-1,1.064825684E1,1.065998897E1
1.142253321E1,-5.897735596E-1,-2.799179077E-2,1.164967438E1,1.166462728E1
1.143247221E1,-2.207908630E-1,4.393363953E-1,1.013751892E1,1.014943619E1
1.144241121E1,-3.047662354E-1,4.981640625E-1,9.329199829E0,9.347460583E0
1.145235021E1,-4.616400146E-1,2.520758057E-1,1.017149826E1,1.018508864E1
1.146228921E1,-5.475613403E-1,2.206411743E-1,1.046638504E1,1.048302064E1
1.147222821E1,-7.249424744E-1,2.365081787E-1,9.726024628E0,9.755871707E0
1.148216721E1,-3.867956543E-1,3.040177917E-1,9.396859131E0,9.409728966E0
1.149210621E1,-2.133064270E-1,3.350033569E-1,9.699080658E0,9.707208275E0
1.150204521E1,-2.118095398E-1,2.891986084E-1,9.846374359E0,9.852897398E0
1.151198421E1,-1.585203552E-1,3.317102051E-1,9.871072998E0,9.877916911E0
1.152192321E1,-1.651066589E-1,2.851570129E-1,9.951156464E0,9.956610352E0
1.153186221E1,-1.185534668E-1,3.138972473E-1,9.967921600E0,9.973567438E0
1.154180021E1,-1.550775146E-1,3.044668579E-1,9.986782379E0,9.992625851E0
1.155173921E1,-1.499880981E-1,3.092568970E-1,1.000579285E1,1.001169450E1
1.156167821E1,-1.618135071E-1,3.056643677E-1,9.955946503E0,9.961951871E0
1.157161721E1,-1.634600830E-1,3.158432007E-1,9.915979614E0,9.922354954E0
1.158155621E1,-1.621128845E-1,3.185375977E-1,9.835896149E0,9.842387913E0
1.159149521E1,-1.395098877E-1,2.993774414E-1,9.927206268E0,9.932699238E0
1.160143421E1,-1.044827271E-1,3.198847961E-1,1.008108627E1,1.008670131E1
1.161137321E1,-1.845661926E-1,3.216810608E-1,1.002809647E1,1.003495202E1
1.162131221E1,-1.564247131E-1,3.179388428E-1,9.887987823E0,9.894334591E0
1.163125121E1,-1.188528442E-1,2.938389587E-1,1.007420059E1,1.007918573E1
1.164119021E1,-1.613644409E-1,3.180885315E-1,1.013677048E1,1.014304365E1
1.165112921E1,-1.697470093E-1,3.487747192E-1,9.908644867E0,9.916234212E0
1.166106721E1,-4.415817261E-2,3.591032410E-1,9.870324554E0,9.876953573E0
1.167100621E1,2.290237427E-1,4.228706360E-1,9.922266541E0,9.933913869E0
1.168094521E1,-6.391708374E-2,3.547622681E-1,9.919272766E0,9.925820564E0
1.169088421E1,-9.505233765E-2,2.945874023E-1,9.825867004E0,9.830741532E0
1.170082321E1,-1.116677856E-1,2.621049500E-1,9.995015259E0,9.999074893E0
1.171076221E1,-1.549278259E-1,1.890568542E-1,1.040052200E1,1.040339382E1
1.172070121E1,-1.353186035E-1,1.240919495E-1,1.056218582E1,1.056378149E1
1.173064012E1,-2.630030823E-1,1.387614441E-1,1.039288788E1,1.039714114E1
1.174057913E1,-3.785627747E-1,2.950364685E-1,9.983189850E0,9.994720400E0
1.175051813E1,-3.350033569E-1,4.805007935E-1,9.586514740E0,9.604393428E0
1.176045713E1,-4.885839844E-1,5.201683044E-1,9.432485046E0,9.459443087E0
1.177039613E1,-3.071612549E-1,3.905378723E-1,9.715097351E0,9.727794427E0
1.178033513E1,-1.942959595E-1,1.851649475E-1,1.013452515E1,1.013807856E1
1.179027313E1,-3.186872864E-1,1.269360352E-1,1.055185730E1,1.055743183E1
1.180021213E1,-3.068618774E-1,2.418969727E-1,1.094898148E1,1.095595152E1
1.181015113E1,-3.583547974E-1,2.709365845E-1,1.122366028E1,1.123264772E1
1.182009013E1,-4.558021545E-1,2.025288391E-1,1.145028900E1,1.146114705E1
1.183002912E1,-4.691244507E-1,1.496887207E-3,1.212613358E1,1.213520480E1
1.183996812E1,-6.373745728E-1,-2.652484131E-1,1.250798950E1,1.252702696E1
1.184990712E1,-1.037043457E0,-2.621049500E-1,1.229977249E1,1.234619624E1
1.185984612E1,-1.575324097E0,-1.631607056E-1,1.240874588E1,1.250940613E1
1.186978512E1,-2.183659058E0,-3.002755737E-1,1.317784653E1,1.336091956E1
1.187972412E1,-2.211052094E0,-4.998106384E-1,1.461979797E1,1.479449407E1
1.188966312E1,-1.879491577E0,-2.477348328E-1,1.589454712E1,1.600720117E1
1.189960212E1,-1.565893707E0,6.213578796E-1,1.624347153E1,1.633059938E1
1.190954012E1,-1.156944122E0,1.684447174E0,1.615605331E1,1.628477635E1
1.191947912E1,-9.327104187E-1,2.196681976E0,1.618030289E1,1.635535270E1
1.192941812E1,-9.298663330E-1,2.233206024E0,1.614856888E1,1.632875186E1
1.193935712E1,-9.026229858E-1,2.055525513E0,1.587418945E1,1.603214908E1
1.194929612E1,-9.003776550E-1,1.662442932E0,1.557990143E1,1.569419399E1
1.195923512E1,-6.062393188E-1,1.163979492E0,1.491094254E1,1.496858650E1
1.196917412E1,-7.524851990E-1,7.114704895E-1,1.338965607E1,1.342964310E1
1.197911313E1,-1.156045990E0,4.450245667E-1,1.153561157E1,1.160193189E1
1.198905213E1,-1.256187744E0,3.017724609E-1,1.042402313E1,1.050377706E1
1.199899113E1,-1.243763580E0,2.504292297E-1,9.660311279E0,9.743268274E0
1.200893013E1,-1.322499847E0,1.800755310E-1,8.880283356E0,8.980025920E0
1.201886813E1,-1.336271210E0,1.353186035E-1,8.647816772E0,8.751495118E0
1.202880713E1,-1.065484314E0,3.147953796E-1,8.744964752E0,8.815257312E0
1.203874613E1,-7.779322815E-1,5.511538696E-1,8.790619812E0,8.842168620E0
1.204868513E1,-6.857240295E-1,6.599775696E-1,8.757239227E0,8.808803932E0
1.205862412E1,-6.394702148E-1,7.375163269E-1,8.843160553E0,8.896872543E0
1.206856312E1,-5.783972168E-1,7.714956665E-1,8.961414642E0,9.013140479E0
1.207850212E1,-6.694079590E-1,6.586303711E-1,9.078920288E0,9.127359672E0
1.208844112E1,-7.036866760E-1,4.020639038E-1,9.268875275E0,9.304239850E0
1.209838012E1,-6.400689697E-1,2.802172852E-1,9.620344391E0,9.645684849E0
1.210831912E1,-6.616241455E-1,4.144880676E-1,9.888436890E0,9.919210200E0
1.211825812E1,-6.378236389E-1,6.982978821E-1,1.008572662E1,1.012997139E1
1.212819712E1,-6.777905273E-1,9.186396790E-1,1.012374756E1,1.018791262E1
1.213813512E1,-7.863148499E-1,9.436376953E-1,9.913734283E0,9.989538057E0
1.214807412E1,-8.000862122E-1,9.120533752E-1,9.956994324E0,1.003063883E1
1.215801312E1,-7.771838379E-1,8.363108826E-1,9.887987823E0,9.953679411E0
1.216795212E1,-7.860154724E-1,8.792715454E-1,9.429790649E0,9.503256835E0
1.217789112E1,-9.113049316E-1,8.719367981E-1,9.009614410E0,9.097466806E0
1.218783012E1,-9.719288635E-1,7.771838379E-1,8.631500702E0,8.720749096E0
1.219776912E1,-1.082099762E0,8.605604553E-1,7.854167175E0,7.974926094E0
1.220770813E1,-1.181792450E0,9.171427917E-1,7.262148285E0,7.414619478E0
1.221764713E1,-1.173709259E0,9.270222473E-1,6.932084656E0,7.091597940E0
1.222758613E1,-1.045426025E0,1.045875092E0,6.589297485E0,6.753192699E0
1.223752513E1,-9.063652039E-1,1.150657196E0,6.315965881E0,6.483589660E0
1.224746413E1,-9.373507690E-1,9.912387085E-1,6.230942688E0,6.378544303E0
1.225740213E1,-1.183738403E0,7.219487000E-1,6.141279144E0,6.295852290E0
1.226734113E1,-1.379381561E0,6.608757019E-1,6.055956573E0,6.246123614E0
1.227728013E1,-1.474433899E0,7.704478455E-1,6.043682098E0,6.268463808E0
1.228721913E1,-1.516945496E0,8.876541138E-1,6.246959381E0,6.489495741E0
1.229715812E1,-1.548978882E0,1.094224548E0,6.369554443E0,6.645892472E0
1.230709712E1,-1.560804291E0,1.307980042E0,6.433321838E0,6.747929438E0
1.231703612E1,-1.582808533E0,1.343156891E0,6.711892548E0,7.025585730E0
1.232697512E1,-1.614392853E0,1.422342224E0,7.034322052E0,7.356018517E0
1.233691412E1,-1.620230713E0,1.493893433E0,7.288493500E0,7.614394437E0
1.234685312E1,-1.531465302E0,1.511257324E0,7.406148834E0,7.712348879E0
1.235679212E1,-1.291514282E0,1.544338531E0,7.366331635E0,7.636480367E0
1.236673112E1,-1.065933380E0,1.761686554E0,7.370672607E0,7.652879731E0
1.237666912E1,-8.596623230E-1,2.020797729E0,7.493267670E0,7.808437945E0
1.238660812E1,-8.497828674E-1,2.173629913E0,7.581883392E0,7.932953655E0
1.239654712E1,-8.589138794E-1,2.228715363E0,7.669301605E0,8.032626739E0
1.240648612E1,-7.822732544E-1,2.245929565E0,7.877518616E0,8.228696774E0
1.241642512E1,-6.794371033E-1,2.173629913E0,7.942184143E0,8.262238845E0
1.242636412E1,-5.242098999E-1,1.998643799E0,7.875123596E0,8.141679477E0
1.243630312E1,-4.638853455E-1,1.891017609E0,7.782166901E0,8.022048297E0
1.244624213E1,-4.704716492E-1,2.049987030E0,7.316185913E0,7.612513823E0
1.245618113E1,-4.475692749E-1,2.242786102E0,6.953789520E0,7.320218333E0
1.246612013E1,-4.436773682E-1,2.189796295E0,6.785689087E0,7.144062836E0
1.247605913E1,-4.180805969E-1,2.085612946E0,6.662345581E0,6.993670094E0
1.248599813E1,-2.854563904E-1,2.018851776E0,6.700216827E0,7.003581468E0
1.249593613E1,-3.867956543E-1,1.794169006E0,6.874005432E0,7.114815808E0
1.250587513E1,-5.022056580E-1,1.398242340E0,7.007827148E0,7.163583845E0
1.251581413E1,-6.168672180E-1,1.076860657E0,6.919061737E0,7.029478598E0
1.252575313E1,-8.304730225E-1,8.542735291E-1,6.931934967E0,7.033575982E0
1.253569212E1,-1.132395172E0,6.225553894E-1,7.061116333E0,7.178388253E0
1.254563112E1,-1.503024445E0,5.275030518E-1,7.137158203E0,7.312753870E0
1.255557012E1,-1.543590088E0,6.210585022E-1,7.309599609E0,7.496574583E0
1.256550912E1,-1.371747437E0,8.851094055E-1,7.518565063E0,7.693759179E0
1.257544812E1,-1.251397705E0,1.155746613E0,7.622598724E0,7.810618270E0
1.258538712E1,-1.108145599E0,1.272354126E0,7.602540436E0,7.787521606E0
1.259532612E1,-9.675878906E-1,1.477876740E0,7.326664124E0,7.536600902E0
1.260526512E1,-8.904981995E-1,1.640139313E0,7.098239136E0,7.339485189E0
1.261520312E1,-8.265811157E-1,1.585802307E0,7.133565674E0,7.354302450E0
1.262514212E1,-6.876699829E-1,1.414857788E0,7.320975952E0,7.488083964E0
1.263508112E1,-4.686753845E-1,1.218765564E0,7.758965149E0,7.868073862E0
1.264502012E1,-3.400927734E-1,9.813592529E-1,8.281079407E0,8.345957418E0
1.265495912E1,-3.716770935E-1,7.015910339E-1,8.671916656E0,8.708186513E0
1.266489812E1,-7.283853149E-1,3.429368591E-1,8.181386719E0,8.220902596E0
1.267483712E1,-1.050814819E0,1.643582153E-1,7.471712494E0,7.547033391E0
1.268477613E1,-1.125958557E0,1.917512512E-1,7.484136658E0,7.570789439E0
1.269471513E1,-1.102756805E0,3.118016052E-1,7.742499390E0,7.826850555E0
1.270465413E1,-1.059496765E0,4.667294312E-1,7.905510406E0,7.989835076E0
1.271459313E1,-8.903485107E-1,8.397537231E-1,7.898025970E0,7.992291350E0
1.272453113E1,-5.560935974E-1,1.342258759E0,7.857460327E0,7.990655884E0
1.273447096E1,-1.743873596E-1,1.528471527E0,8.014483795E0,8.160795713E0
1.274440996E1,1.954934692E-1,1.341510315E0,8.393345947E0,8.502124665E0
1.275434896E1,1.922003174E-1,6.673123169E-1,8.748706970E0,8.776224720E0
1.276428796E1,-1.086740112E-1,-2.288740540E-1,9.015452271E0,9.019011754E0
1.277422696E1,-3.285667419E-1,-4.173321533E-1,8.441695404E0,8.458388944E0
1.278416596E1,-4.872367859E-1,-1.853146362E-1,7.711513824E0,7.729112929E0
1.279410496E1,-8.434959412E-1,-2.751278687E-1,7.505242767E0,7.557502878E0
1.280404396E1,-1.022373962E0,-3.396437073E-1,7.740553436E0,7.815163074E0
1.281398296E1,-1.077609100E0,-1.374142456E-1,7.781119080E0,7.856585657E0
1.282392196E1,-1.062789917E0,-3.622467041E-2,7.979606323E0,8.050152279E0
1.283386096E1,-1.055904236E0,-2.594105530E-1,8.679401093E0,8.747241332E0
1.284379896E1,-1.279688873E0,-8.152047729E-1,9.367370453E0,9.489456867E0
1.285373796E1,-1.386267242E0,-1.321901093E0,1.009006760E1,1.027027865E1
1.286367696E1,-1.658101959E0,-1.217418365E0,1.007270370E1,1.028060161E1
1.287361596E1,-1.945354614E0,-8.955876160E-1,9.960886230E0,1.018851001E1
1.288355496E1,-2.416724396E0,-1.250948639E0,1.048180298E1,1.082929467E1
1.289349396E1,-2.870131531E0,-1.768871613E0,1.112381790E1,1.162350577E1
1.290343296E1,-2.837649078E0,-1.840123444E0,1.142484192E1,1.191492004E1
1.291337196E1,-2.461780701E0,-1.351389771E0,1.115704880E1,1.150505786E1
1.292331096E1,-1.836680603E0,-5.800437927E-1,1.053943314E1,1.071398606E1
1.293324996E1,-1.465751953E0,-3.957769775E-1,1.030487091E1,1.041611409E1
1.294318896E1,-1.212628326E0,-7.589218140E-1,1.098520615E1,1.107795937E1
1.295312696E1,-7.717950439E-1,-1.140927429E0,1.217014206E1,1.224784637E1
1.296306596E1,-4.923262024E-1,-1.766626282E0,1.302351746E1,1.315200975E1
1.297300496E1,-4.149371338E-1,-2.476001129E0,1.305914337E1,1.329826981E1
1.298294396E1,-2.767744446E-1,-2.708318024E0,1.295840286E1,1.324129130E1
1.299288296E1,-5.089416504E-3,-2.446961517E0,1.233734436E1,1.257766721E1
1.300282196E1,6.735992432E-2,-2.052531738E0,1.143397293E1,1.161693423E1
1.301276096E1,-2.954855347E-1,-8.243357849E-1,2.488694733E1,2.490234905E1
1.302269996E1,-6.721023560E-1,3.095562744E0,4.903727646E1,4.913948222E1
1.303263896E1,-2.858306122E0,3.018173676E0,1.901361099E1,1.946269995E1
1.304257796E1,4.595443726E-2,5.347928925E0,-6.875202942E0,8.710388687E0
1.305251696E1,1.488055573E0,5.407205658E0,8.514144745E0,1.019523630E1
1.306245496E1,-1.113983459E0,-1.946252747E0,2.964854553E1,2.973323244E1
1.307239396E1,-9.717791748E-1,-6.222560120E-1,1.253942413E1,1.259240703E1
1.308233296E1,1.257235565E0,-1.470991058E0,9.599537659E-1,2.160084997E0
1.309227196E1,1.547032928E0,-2.320474548E0,5.635780334E0,6.288078641E0
1.310221096E1,-5.574407959E-1,5.339396667E-1,1.273686356E1,1.276023217E1
1.311214996E1,2.980302429E-1,2.183958435E-1,1.177197006E1,1.177776710E1
1.312208896E1,7.617658997E-1,3.613485718E-1,7.363936615E0,7.412045773E0
1.313202796E1,8.939410400E-1,9.539662170E-1,7.383695526E0,7.498542642E0
1.314196696E1,3.192860413E-1,3.421884155E-1,1.039917480E1,1.040970091E1
1.315190596E1,-3.329077148E-1,-8.726852417E-2,1.117501144E1,1.118030966E1
1.316184496E1,-5.598358154E-1,3.501219177E-1,9.616751862E0,9.639394061E0
1.317178296E1,-7.177574158E-1,5.282514954E-1,9.216933289E0,9.259918174E0
1.318172196E1,-6.273454285E-1,2.480342102E-1,9.990374908E0,1.001312509E1
1.319166096E1,-3.326083374E-1,2.594105530E-1,1.024215134E1,1.025083344E1
1.320159996E1,-4.119433594E-1,4.324507141E-1,9.906848602E0,9.924835524E0
1.321153896E1,-5.023553467E-1,3.037184143E-1,9.946516113E0,9.963823993E0
1.322147796E1,-6.286926270E-2,2.761756897E-1,1.008976822E1,1.009374303E1
1.323141696E1,-1.447489929E-1,3.177891541E-1,9.897567902E0,9.903726197E0
1.324135596E1,-8.951385498E-2,3.894900513E-1,9.542506256E0,9.550871210E0
1.325129496E1,-2.350112915E-2,3.408412170E-1,9.529333649E0,9.535456194E0
1.326123396E1,9.265731812E-2,2.911445618E-1,1.002734802E1,1.003200174E1
1.327117296E1,3.457809448E-2,3.436853027E-1,9.953401794E0,9.959393682E0
1.328111196E1,1.916015625E-2,3.335064697E-1,9.834848328E0,9.840520073E0
1.329104996E1,7.903564453E-2,3.017724609E-1,1.002165985E1,1.002651382E1
1.330098896E1,3.712280273E-2,2.845582581E-1,1.004456223E1,1.004866070E1
1.331092796E1,8.367599487E-2,3.052153015E-1,1.005578888E1,1.006076777E1
1.332086696E1,9.654922485E-2,2.826123047E-1,1.018616776E1,1.019054488E1
1.333080596E1,-4.101470947E-2,3.094065857E-1,9.818981323E0,9.823940598E0
1.334074496E1,7.259902954E-2,2.595602417E-1,9.787696381E0,9.791406568E0
1.335068396E1,1.083746338E-1,2.839595032E-1,9.967622223E0,9.972255053E0
1.336062296E1,1.146615601E-1,3.203338623E-1,9.981992340E0,9.987789151E0
1.337056196E1,2.110610962E-2,3.402424622E-1,9.730964355E0,9.736933690E0
1.338050096E1,5.718109131E-2,3.275189209E-1,9.802365875E0,9.808002604E0
1.339043996E1,1.046324158E-1,3.327580261E-1,9.917626190E0,9.923758617E0
1.340037796E1,1.058299255E-1,3.406915283E-1,9.903854828E0,9.910278056E0
1.341031696E1,1.148112488E-1,3.396437073E-1,9.912237396E0,9.918719155E0
1.342025596E1,1.062789917E-1,3.465293884E-1,9.930649109E0,9.937261673E0
1.343019496E1,1.043330383E-1,3.363505554E-1,9.869127045E0,9.875408128E0
1.344013396E1,7.619155884E-2,3.580554199E-1,9.832902374E0,9.839714322E0
1.345007296E1,1.184037781E-1,3.623963928E-1,9.905651093E0,9.912985129E0
1.346001196E1,9.086105347E-2,3.552113342E-1,9.848320312E0,9.855143013E0
1.346995096E1,6.676116943E-2,3.291654968E-1,9.869875488E0,9.875588546E0
1.347988996E1,1.062789917E-1,3.424877930E-1,9.862391052E0,9.868908267E0
1.348982896E1,1.453477478E-1,3.523672485E-1,9.792486420E0,9.799901985E0
1.349976796E1,3.098556519E-2,3.582051086E-1,9.814340973E0,9.820924587E0
1.350970696E1,-7.200027466E-2,4.245172119E-1,9.840536499E0,9.849952157E0
1.351964496E1,-1.577719116E-1,5.231620789E-1,9.790540466E0,9.805777540E0
1.352958396E1,-1.386117554E-1,5.848338318E-1,9.820478210E0,9.838853394E0
1.353952296E1,-1.627116394E-1,6.237528992E-1,9.876761169E0,9.897775202E0
1.354946196E1,-2.585124207E-1,6.117778015E-1,9.889335022E0,9.911611772E0
1.355940096E1,-4.047583008E-1,5.453160095E-1,9.928703156E0,9.951901586E0
1.356933996E1,-7.146139526E-1,4.797523499E-1,9.930649109E0,9.967879772E0
1.357927896E1,-8.837622070E-1,5.379812622E-1,9.990524597E0,1.004395546E1
1.358921796E1,-1.098116455E0,5.843847656E-1,9.991871796E0,1.006900528E1
1.359915696E1,-1.489103394E0,6.010002136E-1,9.951904907E0,1.008062704E1
1.360909596E1,-1.634750519E0,6.358776855E-1,9.942474518E0,1.009601650E1
1.361903496E1,-1.820514221E0,5.632786560E-1,9.930349731E0,1.011154789E1
1.362897296E1,-2.016007690E0,4.760101318E-1,9.912087708E0,1.012622118E1
1.363891196E1,-2.185605011E0,4.219725037E-1,9.798024902E0,1.004769735E1
1.364885096E1,-2.400558014E0,3.433859253E-1,9.839638367E0,1.013405525E1
1.365878996E1,-2.562820587E0,2.592608643E-1,9.929002533E0,1.025769744E1
1.366872896E1,-2.631228333E0,1.933978271E-1,1.003947281E1,1.038035546E1
1.367866796E1,-2.633623352E0,1.809736633E-1,9.982591095E0,1.032573718E1
1.368860696E1,-2.553240509E0,1.999841309E-1,9.887838135E0,1.021412619E1
1.369854596E1,-2.281555481E0,2.486329651E-1,9.887389069E0,1.015025992E1
1.370848496E1,-2.130669250E0,3.062631226E-1,1.002794678E1,1.025637680E1
1.371842396E1,-2.194286957E0,3.604504395E-1,9.944570160E0,1.019015679E1
1.372836296E1,-2.155367889E0,5.272036743E-1,9.621092834E0,9.873650884E0
1.373829958E1,-2.063608704E0,7.677534485E-1,9.680519257E0,9.927758021E0
1.374823858E1,-1.934127960E0,1.027463379E0,9.968220978E0,1.020597675E1
1.375817758E1,-1.924996948E0,1.232387238E0,1.004815475E1,1.030484379E1
1.376811658E1,-1.827998657E0,1.281335449E0,1.003558090E1,1.028086979E1
1.377805558E1,-1.840871887E0,1.142873383E0,1.015173935E1,1.038040369E1
1.378799458E1,-1.910177765E0,8.906478882E-1,1.034453842E1,1.055705962E1
1.379793358E1,-2.116748199E0,5.969586182E-1,1.011596375E1,1.035228018E1
1.380787258E1,-2.302362213E0,2.812651062E-1,9.797875214E0,1.006868117E1
1.381781158E1,-2.340083771E0,-1.766326904E-1,9.780661011E0,1.005825636E1
1.382775058E1,-2.234553223E0,-5.358856201E-1,9.808054047E0,1.007364510E1
1.383768958E1,-1.874252472E0,-7.316784668E-1,1.001148102E1,1.021165647E1
1.384762758E1,-1.413211212E0,-6.030958557E-1,1.009171417E1,1.020801575E1
1.385756658E1,-1.162632294E0,-3.945794678E-1,9.985435181E0,1.006063231E1
1.386750558E1,-1.011746063E0,-2.522254944E-1,9.971663818E0,1.002603247E1
1.387744458E1,-1.123413849E0,-5.313949585E-2,9.679172058E0,9.744293418E0
1.388738358E1,-9.270222473E-1,9.220825195E-2,9.735155640E0,9.779628211E0
1.389732258E1,-5.998027039E-1,1.796264648E-1,9.980495453E0,1.000011592E1
1.390726158E1,-4.917274475E-1,3.161425781E-1,9.998009033E0,1.001508495E1
1.391720058E1,-5.017565918E-1,5.809419250E-1,9.890532532E0,9.920276557E0
1.392713958E1,-1.609153748E-1,9.178912354E-1,1.002944366E1,1.007264406E1
1.393707858E1,4.028123474E-1,1.167272644E0,1.039333694E1,1.046643378E1
1.394701658E1,6.182144165E-1,1.230590973E0,1.031310379E1,1.040464574E1
1.395695558E1,6.337820435E-1,1.229842529E0,1.009351044E1,1.018789209E1
1.396689458E1,7.017407227E-1,1.156345367E0,9.854607239E0,9.947002487E0
1.397683358E1,6.384223938E-1,1.046623535E0,9.891430664E0,9.967116161E0
1.398677258E1,4.924758911E-2,7.593708801E-1,1.016640884E1,1.019484861E1
1.399671158E1,-6.545887756E-1,4.067042542E-1,1.003333557E1,1.006288813E1
1.400665058E1,-9.017248535E-1,-2.424957275E-2,9.785151672E0,9.826641797E0
1.401658958E1,-5.279521179E-1,-4.210743713E-1,9.762249298E0,9.785578594E0
1.402652858E1,1.802252197E-1,-5.421725464E-1,9.872120819E0,9.888640031E0
1.403646758E1,6.881190491E-1,-5.227130127E-1,1.000699036E1,1.004423181E1
1.404640658E1,9.586065674E-1,-5.656736755E-1,9.751471710E0,9.814790562E0
1.405634458E1,1.265318756E0,-7.406597900E-1,9.658365326E0,9.769013730E0
1.406628358E1,1.697619781E0,-8.539741516E-1,9.729617157E0,9.913457257E0
1.407622258E1,2.140698395E0,-7.849676514E-1,1.004486160E1,1.030038875E1
1.408616158E1,2.010469208E0,-5.736071777E-1,1.003123993E1,1.024679394E1
1.409610058E1,1.686991882E0,-3.185375977E-1,1.012674133E1,1.027123643E1
1.410603958E1,1.254690857E0,-3.055146790E-1,1.009889923E1,1.018112735E1
1.411597858E1,8.282276917E-1,-3.791615295E-1,1.000130219E1,1.004269735E1
1.412591758E1,4.331991577E-1,-4.032614136E-1,9.896819458E0,9.914500323E0
1.413585658E1,2.686912537E-1,-4.855902100E-1,1.014156052E1,1.015673385E1
1.414579558E1,2.935395813E-1,-5.897735596E-1,1.019335281E1,1.021461893E1
1.415573458E1,-1.598675537E-1,-7.433541870E-1,9.855804749E0,9.885090810E0
1.416567258E1,-4.800517273E-1,-9.229806519E-1,9.743687897E0,9.799071220E0
1.417561158E1,3.712280273E-2,-9.812095642E-1,9.865983582E0,9.914725530E0
1.418555058E1,6.557862854E-1,-7.991880798E-1,9.766141205E0,9.820706251E0
1.419548958E1,1.538051605E0,-6.216572571E-1,9.766889648E0,9.906775151E0
1.420542858E1,2.222278748E0,-6.010002136E-1,9.798473969E0,1.006527775E1
1.421536758E1,2.557581482E0,-4.821473694E-1,9.859696655E0,1.019741670E1
1.422530658E1,2.524051208E0,-3.025209045E-1,9.826914825E0,1.015039942E1
1.423524558E1,2.529140625E0,-1.261875916E-1,9.836494904E0,1.015721948E1
1.424518458E1,2.393672333E0,-5.328918457E-2,1.000339783E1,1.028593579E1
1.425512358E1,2.159110107E0,-1.975891113E-2,9.930649109E0,1.016267379E1
1.426506258E1,1.901795197E0,-2.395019531E-2,9.818981323E0,1.000148953E1
1.427500058E1,2.186054077E0,7.005432129E-2,9.940229187E0,1.017801043E1
1.428493958E1,2.908002777E0,3.549119568E-1,9.863738251E0,1.028959547E1
1.429487858E1,3.596121826E0,6.177653503E-1,9.809101868E0,1.046576350E1
1.430481758E1,4.045337677E0,7.688012695E-1,9.889634399E0,1.071264117E1
1.431475658E1,4.592300262E0,9.565109253E-1,9.786049805E0,1.085223044E1
1.432469558E1,4.489464111E0,1.121168518E0,1.001312759E1,1.103064056E1
1.433463458E1,-5.538482666E-2,4.328997803E-1,1.020173538E1,1.021106628E1
1.434457358E1,-1.303339691E0,-6.900650024E-2,1.034902908E1,1.043100471E1
1.435451258E1,8.196954346E-1,2.489323425E-1,1.049273026E1,1.052764248E1
1.436445158E1,1.420695648E0,-6.421646118E-2,9.700876923E0,9.804565923E0
1.437439058E1,1.568139038E0,-2.806663513E-1,9.303004303E0,9.438417383E0
1.438432858E1,1.853146362E0,-5.876779175E-1,9.367669830E0,9.567275204E0
1.439426758E1,2.161205750E0,-1.113983459E0,9.413773956E0,9.722700733E0
1.440420658E1,2.257006531E0,-1.431173859E0,9.451794891E0,9.822360397E0
1.441414558E1,2.022444305E0,-1.354982300E0,9.617051239E0,9.920379657E0
1.442408458E1,1.587448883E0,-1.164727936E0,9.671687622E0,9.870062137E0
1.443402358E1,1.071621552E0,-8.728349304E-1,9.881251831E0,9.977442123E0
1.444396258E1,8.782237244E-1,-4.990621948E-1,1.010054581E1,1.015092930E1
1.445390158E1,9.734257507E-1,-1.472937012E-1,1.012569351E1,1.017344200E1
1.446384058E1,1.060544586E0,9.879455566E-3,9.920919342E0,9.977449224E0
1.447377958E1,1.129251709E0,5.388793945E-3,9.924062805E0,9.988105978E0
1.448371758E1,1.091230774E0,-6.316864014E-2,9.857151947E0,9.917571244E0
1.449365658E1,7.659571838E-1,-2.008822632E-1,9.728419647E0,9.760593882E0
1.450359558E1,5.956114197E-1,-3.465293884E-1,9.873617706E0,9.897634171E0
1.451353458E1,1.021924896E0,-3.020718384E-1,1.000998413E1,1.006654659E1
1.452347358E1,1.859732666E0,-1.764830017E-1,1.015652939E1,1.032689891E1
1.453341258E1,2.177671509E0,-1.270857239E-1,9.971364441E0,1.020717947E1
1.454335158E1,2.206711121E0,-1.683998108E-1,9.798923035E0,1.004573666E1
1.455329058E1,2.237097931E0,-1.299298096E-1,9.692344666E0,9.948016587E0
1.456322958E1,2.033521271E0,1.646575928E-3,9.845925293E0,1.005372848E1
1.457316858E1,1.606609039E0,1.071771240E-1,9.964179382E0,1.009344095E1
1.458310758E1,1.345701599E0,2.227368164E-1,9.795180817E0,9.889696240E0
1.459304558E1,1.257235565E0,3.632945251E-1,9.809850311E0,9.896756403E0
1.460298458E1,1.140328674E0,5.123844910E-1,9.981094208E0,1.005908191E1
1.461292358E1,9.648934937E-1,7.333250427E-1,1.004291565E1,1.011577678E1
1.462286258E1,1.613195343E0,7.518864441E-1,1.013721954E1,1.029227635E1
1.463280158E1,2.462828522E0,4.275109863E-1,9.677675171E0,9.995283222E0
1.464274058E1,2.114353180E0,3.089575195E-1,9.469009094E0,9.707114780E0
1.465267958E1,1.109343109E0,4.998106384E-1,9.822424164E0,9.897498131E0
1.466261858E1,4.721182251E-1,6.623725891E-1,1.034558624E1,1.037751356E1
1.467255758E1,5.508544922E-2,6.128256226E-1,1.024724075E1,1.026569689E1
1.468249658E1,-3.474275208E-1,5.387297058E-1,1.017733612E1,1.019750490E1
1.469243558E1,-1.017733612E0,4.275109863E-1,1.030367340E1,1.036263639E1
1.470237358E1,-7.852670288E-1,4.999603271E-1,1.005728577E1,1.010027730E1
1.471231258E1,-2.318678284E-1,5.999523926E-1,9.759854279E0,9.781025565E0
1.472225158E1,-4.805007935E-1,5.408253479E-1,9.427245941E0,9.454963728E0
1.473219158E1,-1.287772064E0,5.081932068E-1,9.709259491E0,9.807463336E0
1.474213058E1,-1.670975189E0,4.959187317E-1,1.020712418E1,1.035487699E1
1.475206958E1,-8.987310791E-1,5.331912231E-1,9.926158447E0,9.981013573E0
1.476200858E1,-1.404080200E-1,8.222401428E-1,9.619745636E0,9.655842758E0
1.477194758E1,-1.541793823E-1,1.039887543E0,9.746232605E0,9.802764272E0
1.478188658E1,-4.595443726E-1,1.033151550E0,1.020921982E1,1.027164799E1
1.479182558E1,-8.771759033E-1,9.430389404E-1,1.036040543E1,1.044015137E1
1.480176358E1,-8.598120117E-1,8.035290527E-1,1.009500732E1,1.016337092E1
1.481170258E1,-6.686595154E-1,5.902226257E-1,9.942923584E0,9.982845170E0
1.482164158E1,-4.867877197E-1,3.056643677E-1,1.008872040E1,1.010508151E1
1.483158058E1,-5.300477600E-1,6.885681152E-2,1.014440460E1,1.015847610E1
1.484151958E1,-6.143225098E-1,3.427871704E-2,1.005623795E1,1.007504287E1
1.485145858E1,-6.411167908E-1,1.499880981E-1,9.961035919E0,9.982773350E0
1.486139758E1,-5.541476440E-1,2.558180237E-1,9.862989807E0,9.881856628E0
1.487133658E1,-5.019062805E-1,3.502716064E-1,9.848919067E0,9.867918064E0
1.488127558E1,-7.297325134E-1,3.757186890E-1,9.999655609E0,1.003328393E1
1.489121458E1,-8.066725159E-1,3.683839417E-1,1.012299911E1,1.016176847E1
1.490115258E1,-6.236032104E-1,4.023632813E-1,9.967023468E0,9.994615250E0
1.491109158E1,-2.073188782E-1,4.111949158E-1,9.857900391E0,9.868650490E0
1.492103058E1,2.769241333E-2,2.047741699E-1,9.854756927E0,9.856923122E0
1.493096958E1,1.070274353E-1,1.646575928E-3,9.681866455E0,9.682458140E0
1.494090858E1,-3.137475586E-1,-7.933502197E-2,9.713301086E0,9.718690733E0
1.495084758E1,-8.981323242E-1,-1.137634277E-1,9.951904907E0,9.992997302E0
1.496078658E1,-1.050665131E0,-2.859054565E-2,9.802665253E0,9.858851895E0
1.497072558E1,-1.146016846E0,6.391708374E-2,9.796228638E0,9.863241634E0
1.498066458E1,-1.221010895E0,1.320254517E-1,1.000878662E1,1.008385382E1
1.499060358E1,-1.425934753E0,1.742376709E-1,9.886790314E0,9.990609160E0
1.500054258E1,-2.110760651E0,1.345701599E-1,9.824968872E0,1.005004642E1
1.501048058E1,-3.008593597E0,-4.490661621E-4,9.901160431E0,1.034816957E1
1.502041958E1,-3.732637939E0,-1.546284485E-1,1.004635849E1,1.071848006E1
1.503035858E1,-4.139791260E0,-1.088237000E-1,1.016146912E1,1.097292891E1
1.504029758E1,-4.447251892E0,3.757186890E-2,1.005788452E1,1.099729522E1
1.505023658E1,-4.641847229E0,2.297721863E-1,9.924511871E0,1.095880819E1
1.506017558E1,-4.144431610E0,4.230203247E-1,1.003917343E1,1.086923469E1
1.507011458E1,-3.549269257E0,5.345384216E-1,1.014799713E1,1.076405543E1
1.508005358E1,-3.184328156E0,5.423222351E-1,1.007180557E1,1.057711334E1
1.508999258E1,-3.016527100E0,4.269122314E-1,1.006312363E1,1.051418789E1
1.509993158E1,-2.655028839E0,2.659968567E-1,1.012015503E1,1.046601501E1
1.510986958E1,-1.952988739E0,4.625381470E-2,1.015548157E1,1.034166864E1
1.511980858E1,-1.134341125E0,-9.071136475E-2,9.949060822E0,1.001392878E1
1.512974758E1,-3.173400879E-2,2.212399292E-1,9.730215912E0,9.732782534E0
1.513968658E1,2.787203979E-1,2.682421875E-1,9.960287476E0,9.967796423E0
1.514962558E1,-0.000000000E0,2.914439392E-1,1.048240173E1,1.048645248E1
1.515956458E1,2.143542480E-1,2.564167786E-1,1.048928741E1,1.049461042E1
1.516950358E1,1.573228455E-1,2.294728088E-1,9.388177185E0,9.392298925E0
1.517944258E1,-4.698728943E-1,4.330494690E-1,7.903564453E0,7.929353280E0
1.518938158E1,-1.793270874E-1,3.507206726E-1,1.012584320E1,1.013350205E1
1.519932058E1,5.273533630E-1,1.977388000E-1,1.127904510E1,1.129309792E1
1.520925858E1,7.035369873E-3,3.272195435E-1,9.623936920E0,9.629500712E0
1.521919758E1,-1.793270874E-1,5.441184998E-1,8.735833740E0,8.754599607E0
1.522913658E1,1.456471252E-1,3.589535522E-1,9.842632141E0,9.850252190E0
1.523907558E1,2.128573608E-1,2.460882568E-1,1.054871384E1,1.055373068E1
1.524901458E1,1.571731567E-2,3.408412170E-1,9.799671478E0,9.805609662E0
1.525895358E1,-7.274871826E-2,4.125421143E-1,9.483678589E0,9.492925942E0
1.526889258E1,5.643264771E-2,3.394940186E-1,9.994715881E0,1.000063930E1
1.527883158E1,1.285826111E-1,3.135978699E-1,1.009994705E1,1.010563247E1
1.528877058E1,8.158035278E-2,3.790118408E-1,9.778415680E0,9.786098229E0
1.529870958E1,2.529739380E-2,3.800596619E-1,9.745633850E0,9.753074615E0
1.530864758E1,6.526428223E-2,3.393443298E-1,9.925410004E0,9.931423752E0
1.531858658E1,9.430389404E-2,3.505709839E-1,9.889185333E0,9.895846593E0
1.532852558E1,9.445358276E-2,3.760180664E-1,9.810748444E0,9.818405985E0
1.533846458E1,7.544311523E-2,3.510200500E-1,9.835447083E0,9.841998072E0
1.534840358E1,8.352630615E-2,3.493734741E-1,9.880353699E0,9.886881595E0
1.535834258E1,1.227447510E-1,3.478765869E-1,9.831405487E0,9.838323955E0
1.536828158E1,1.023870850E-1,3.360511780E-1,9.818981323E0,9.825263749E0
1.537822058E1,3.966751099E-2,3.447331238E-1,9.827962646E0,9.834086852E0
1.538815958E1,4.700225830E-2,3.694317627E-1,9.803563385E0,9.810634235E0
1.539809858E1,9.520202637E-2,3.662882996E-1,9.782307587E0,9.789625747E0
1.540803658E1,8.711883545E-2,3.276686096E-1,9.937085724E0,9.942868253E0
1.541797558E1,-1.734892273E-1,2.718347168E-1,1.000594254E1,1.001113773E1
1.542791458E1,-1.300196228E0,1.342707825E-1,9.585766296E0,9.674474371E0
1.543785358E1,8.090675354E-1,6.686595154E-1,1.016595978E1,1.022000166E1
1.544779258E1,9.277706909E-1,2.278262329E-1,1.034917877E1,1.039317875E1
1.545773158E1,-1.326242065E-1,4.429289246E-1,9.529782715E0,9.540992286E0
1.546767058E1,-1.531315613E-1,3.574566650E-1,9.445507965E0,9.453509680E0
1.547760958E1,-8.117619324E-1,1.824705505E-1,1.003573059E1,1.007016094E1
1.548754858E1,-1.757345581E-1,2.990780640E-1,1.009336075E1,1.009931985E1
1.549748758E1,4.230203247E-1,3.869453430E-1,9.788444824E0,9.805219272E0
1.550742558E1,1.074016571E0,5.200186157E-1,9.724976807E0,9.797913290E0
1.551736458E1,5.825885010E-1,4.819976807E-1,9.972711639E0,1.000133534E1
1.552730358E1,-2.745291138E-1,2.812651062E-1,9.988878021E0,9.996607445E0
1.553724258E1,3.442840576E-2,3.502716064E-1,9.712552643E0,9.718927634E0
1.554718158E1,4.760101318E-2,3.350033569E-1,1.001866608E1,1.002437844E1
1.555712058E1,8.801696777E-2,3.267704773E-1,9.981243896E0,9.986979306E0
1.556705958E1,-1.466949463E-2,3.317102051E-1,9.815538483E0,9.821152812E0
1.557699858E1,8.382568359E-3,3.291654968E-1,9.861642609E0,9.867138143E0
1.558693758E1,3.083587646E-2,3.373983765E-1,9.901459808E0,9.907254658E0
1.559687658E1,3.966751099E-2,3.448828125E-1,9.826465759E0,9.832596147E0
1.560681558E1,8.083190918E-3,3.335064697E-1,9.797725525E0,9.803403356E0
1.561675358E1,6.661148071E-2,3.522175598E-1,9.837393036E0,9.843921782E0
1.562669258E1,8.771759033E-2,3.576063538E-1,9.897567902E0,9.904414523E0
1.563663158E1,4.400848389E-2,3.457809448E-1,9.867480469E0,9.873635197E0
1.564657058E1,6.331832886E-2,3.278182983E-1,9.850865021E0,9.856521481E0
1.565650958E1,3.023712158E-2,3.270698547E-1,9.896071014E0,9.901520615E0
1.566644858E1,3.143463135E-2,3.376977539E-1,9.873917084E0,9.879740203E0
1.567638758E1,5.119354248E-2,3.535647583E-1,9.879006500E0,9.885463988E0
1.568632658E1,3.817062378E-2,3.456312561E-1,9.919272766E0,9.925365997E0
1.569626558E1,4.370910645E-2,3.543132019E-1,9.853260040E0,9.859725237E0
1.570620458E1,2.634521484E-2,3.682342529E-1,9.779164124E0,9.786130057E0
1.571614258E1,-1.751358032E-2,3.549119568E-1,9.491013336E0,9.497663048E0
1.572608158E1,-4.355941772E-2,5.331912231E-1,8.773555298E0,8.789849991E0
1.573602071E1,-1.287322998E-1,1.658551025E-1,1.058568695E1,1.058776880E1
1.574595971E1,3.158432007E-2,1.901046753E-1,1.092877350E1,1.093047243E1
1.575589871E1,1.691482544E-1,3.430865479E-1,1.023825943E1,1.024540266E1
1.576583771E1,3.712280273E-2,2.607577515E-1,1.020188507E1,1.020528450E1
1.577577671E1,-5.882766724E-2,2.984793091E-1,9.935588837E0,9.940245275E0
1.578571571E1,5.478607178E-2,4.073030090E-1,9.477092285E0,9.485998916E0
1.579565471E1,2.474354553E-1,3.580554199E-1,9.390572205E0,9.400652867E0
1.580559371E1,-1.320254517E-1,3.725752258E-1,9.773625641E0,9.781615469E0