"Time (s)","Acceleration x (m/s^2)","Acceleration y (m/s^2)","Acceleration z (m/s^2)","Absolute acceleration (m/s^2)"
5.774584133E-4,-2.314187622E-1,8.439450073E-1,1.021400986E1,1.025142893E1
1.051645842E-2,-4.040098572E-1,9.846524048E-1,9.947713623E0,1.000448753E1
2.045645844E-2,-5.999523926E-1,9.719288635E-1,9.635013885E0,9.702478094E0
3.039545845E-2,-4.712200928E-1,1.229243774E0,9.422755280E0,9.514273787E0
4.033445846E-2,-6.312373352E-1,1.319206696E0,9.057065735E0,9.174377723E0
5.027345847E-2,-9.647438049E-1,1.148112488E0,9.184600525E0,9.306222633E0
6.021245848E-2,-1.177900543E0,1.042282562E0,9.814790039E0,9.940015399E0
7.015245827E-2,-1.393152924E0,8.144563293E-1,1.107621689E1,1.119315839E1
8.009145828E-2,-9.119036865E-1,1.047821045E0,1.132904114E1,1.141388060E1
9.003045829E-2,-6.053411865E-1,9.885443115E-1,1.114701965E1,1.120712742E1
9.996945830E-2,-5.013075256E-1,7.301815796E-1,1.075887680E1,1.079527232E1
1.099094583E-1,-4.188290405E-1,5.560935974E-1,1.046443909E1,1.048757089E1
1.198484583E-1,-4.816983032E-1,5.287005615E-1,1.023376877E1,1.025873193E1
1.297874583E-1,-4.117936707E-1,6.264472961E-1,1.000728973E1,1.003533049E1
1.397264584E-1,-3.722758484E-1,6.562353516E-1,1.004845413E1,1.007673879E1
1.496654584E-1,-5.450166321E-1,6.108796692E-1,9.992470551E0,1.002595057E1
1.596054584E-1,-5.433700562E-1,7.006929016E-1,9.766889648E0,9.807056386E0
1.695444584E-1,-5.194198608E-1,7.837701416E-1,9.626930695E0,9.672739386E0
1.794834584E-1,-5.442681885E-1,8.569679260E-1,9.461524658E0,9.515832635E0
1.894224584E-1,-5.394781494E-1,8.881031799E-1,9.304950256E0,9.362791422E0
1.993624584E-1,-4.511618042E-1,9.180409241E-1,9.225016479E0,9.281555643E0
2.093014584E-1,-5.041516113E-1,8.861572266E-1,9.189390564E0,9.245774300E0
2.192404584E-1,-5.201683044E-1,8.149053955E-1,9.153465271E0,9.204377890E0
2.291794585E-1,-4.837939453E-1,7.890092468E-1,9.160500641E0,9.207136589E0
2.391184585E-1,-4.073030090E-1,7.776329041E-1,9.208550720E0,9.250298106E0
2.490584583E-1,-3.824546814E-1,7.212002563E-1,9.287286987E0,9.323095032E0
2.589974583E-1,-3.775149536E-1,6.212081909E-1,9.365274811E0,9.393443960E0
2.689364583E-1,-3.333567810E-1,5.270539856E-1,9.434880066E0,9.455467969E0
2.788754583E-1,-3.162922668E-1,3.977229309E-1,9.597442017E0,9.610885370E0
2.888154583E-1,-2.933898926E-1,3.017724609E-1,9.744436340E0,9.753521612E0
2.987544583E-1,-2.294728088E-1,2.523751831E-1,9.870773621E0,9.876665575E0
3.086934583E-1,-1.321751404E-1,2.017803955E-1,9.927505646E0,9.930435738E0
3.186324583E-1,-7.454498291E-2,1.088237000E-1,9.941726074E0,9.942601113E0
3.285714583E-1,3.068618774E-2,5.284011841E-2,9.906100159E0,9.906288613E0
3.385114584E-1,9.071136475E-2,3.547622681E-2,9.905800781E0,9.906279636E0
3.484504584E-1,5.388793945E-2,7.649093628E-2,9.970765686E0,9.971204698E0
3.583894584E-1,4.011657715E-2,1.257385254E-1,9.981692963E0,9.982565498E0
3.683284584E-1,5.987548828E-2,1.574725342E-1,1.000728973E1,1.000870773E1
3.782684584E-1,3.143463135E-3,2.294728088E-1,1.001387604E1,1.001650543E1
3.882074584E-1,-9.011260986E-2,2.998265076E-1,9.915829926E0,9.920771106E0
3.981464584E-1,-1.877096558E-1,3.233276367E-1,9.790989532E0,9.798124907E0
4.080854584E-1,-2.460882568E-1,3.574566650E-1,9.664502563E0,9.674241288E0
4.180244585E-1,-1.932481384E-1,4.064048767E-1,9.578281860E0,9.588847332E0
4.279644585E-1,-1.194515991E-1,4.140390015E-1,9.553283844E0,9.562997918E0
4.379034583E-1,-2.380050659E-2,3.686833191E-1,9.577533417E0,9.584656499E0
4.478424583E-1,1.332229614E-2,3.378474426E-1,9.647288361E0,9.653211439E0
4.577814583E-1,1.556762695E-2,3.537144470E-1,9.745334473E0,9.751763956E0
4.677214583E-1,-4.834945679E-2,3.875440979E-1,9.814640350E0,9.822407714E0
4.776604583E-1,-1.537303162E-1,4.490661621E-1,9.863588562E0,9.875002418E0
4.875994583E-1,-2.357597351E-1,4.601431274E-1,9.898316345E0,9.911810169E0
4.975384583E-1,-3.350033569E-1,4.665797424E-1,9.888885956E0,9.905553460E0
5.074774583E-1,-4.035607910E-1,4.516108704E-1,9.902357941E0,9.920862184E0
5.174174584E-1,-4.143383789E-1,3.787124634E-1,9.925709381E0,9.941569601E0
5.273564584E-1,-2.959346008E-1,3.637435913E-1,9.932295685E0,9.943358802E0
5.372954584E-1,-1.692979431E-1,3.550616455E-1,9.926308136E0,9.934099042E0
5.472344584E-1,-6.945556641E-2,2.806663513E-1,9.927805023E0,9.932014411E0
5.571734584E-1,-4.834945679E-2,2.577639771E-1,9.997859344E0,1.000129849E1
5.671134584E-1,2.514770508E-2,3.359014893E-1,1.000788849E1,1.001355552E1
5.770524584E-1,-1.826202393E-2,3.902384949E-1,1.004531067E1,1.005290436E1
5.869914584E-1,-2.944377136E-1,3.836521912E-1,1.011117371E1,1.012273265E1
5.969304584E-1,-4.825964355E-1,4.507127380E-1,1.009889923E1,1.012046476E1
6.068704585E-1,-6.448590088E-1,5.526507568E-1,1.005638763E1,1.009218501E1
6.168094585E-1,-7.671546936E-1,5.688171387E-1,9.943372650E0,9.989131039E0
6.267484585E-1,-8.107141113E-1,6.586303711E-1,9.663155365E0,9.719445609E0
6.366874583E-1,-7.679031372E-1,6.328839111E-1,9.506131897E0,9.558073075E0
6.466264583E-1,-6.568341064E-1,5.075944519E-1,9.675280151E0,9.710825360E0
6.565664583E-1,-4.266128540E-1,4.742138672E-1,9.851763153E0,9.872391531E0
6.665054583E-1,-2.049238586E-1,4.813989258E-1,9.944420471E0,9.958174392E0
6.764444583E-1,-1.387614441E-1,4.757107544E-1,9.923464050E0,9.935828814E0
6.863834583E-1,-2.062710571E-1,4.578977966E-1,9.853409729E0,9.866199949E0
6.963234583E-1,-3.324586487E-1,4.727169800E-1,9.857301636E0,9.874228356E0
7.062624583E-1,-4.462220764E-1,5.037025452E-1,9.879006500E0,9.901898799E0
7.162014584E-1,-4.869374084E-1,4.960684204E-1,9.903106384E0,9.927472386E0
7.261404584E-1,-4.902305603E-1,5.014572144E-1,9.889335022E0,9.914168272E0
7.360794584E-1,-4.842430115E-1,5.577401733E-1,9.872569885E0,9.900161692E0
7.460194584E-1,-5.270539856E-1,6.059399414E-1,9.823172607E0,9.855945880E0
7.559584584E-1,-5.135820007E-1,6.794371033E-1,9.704619141E0,9.741921469E0
7.658974584E-1,-5.565426636E-1,7.822732544E-1,9.639354858E0,9.687045642E0
7.758364584E-1,-5.550457764E-1,8.794212341E-1,9.639354858E0,9.695288526E0
7.857764584E-1,-6.060896301E-1,9.083111572E-1,9.708511047E0,9.769726739E0
7.957154585E-1,-6.246510315E-1,8.812174988E-1,9.750723267E0,9.810368872E0
8.056544585E-1,-5.438191223E-1,8.119116211E-1,9.788594513E0,9.837251763E0
8.155934585E-1,-4.834945679E-1,6.818321228E-1,9.808952179E0,9.844501251E0
8.255335833E-1,-4.216731262E-1,5.520520020E-1,9.803413696E0,9.827995204E0
8.354735833E-1,-3.748205566E-1,4.707710266E-1,9.839788055E0,9.858171473E0
8.454125833E-1,-4.074526978E-1,4.326004028E-1,9.921368408E0,9.939150462E0
8.553515833E-1,-4.153862000E-1,4.255650330E-1,9.990374908E0,1.000805886E1
8.652905833E-1,-3.885919189E-1,4.549040222E-1,9.975705414E0,9.993629964E0
8.752295834E-1,-4.074526978E-1,4.210743713E-1,9.979896698E0,9.997082546E0
8.851695834E-1,-3.947291565E-1,4.032614136E-1,9.983788605E0,9.999723285E0
8.951085834E-1,-3.513194275E-1,4.381388855E-1,9.984986115E0,1.000076691E1
9.050475834E-1,-3.535647583E-1,4.405339050E-1,9.965077515E0,9.981074493E0
9.149865834E-1,-3.650907898E-1,4.489164734E-1,9.973160706E0,9.989932519E0
9.249265834E-1,-3.344046021E-1,5.345384216E-1,9.981692963E0,1.000158748E1
9.348655834E-1,-3.999682617E-1,5.780978394E-1,9.930948486E0,9.955797786E0
9.448045834E-1,-3.820056152E-1,5.761518860E-1,9.892628174E0,9.916752063E0
9.547435835E-1,-3.243754578E-1,5.614823914E-1,9.838291168E0,9.859637672E0
9.646825835E-1,-3.079096985E-1,5.728587341E-1,9.787696381E0,9.809280093E0
9.746225835E-1,-3.302133179E-1,5.641767883E-1,9.830357666E0,9.852069231E0
9.845615833E-1,-2.796185303E-1,5.761518860E-1,9.883048096E0,9.903775905E0
9.945005833E-1,-2.827619934E-1,5.872288513E-1,9.873168640E0,9.894657703E0
1.004439583E0,-2.945874023E-1,6.378236389E-1,9.886341248E0,9.911273581E0
1.014378583E0,-2.811154175E-1,6.514453125E-1,9.886790314E0,9.912216179E0
1.024318583E0,-2.646496582E-1,6.126759338E-1,9.925260315E0,9.947673274E0
1.034257583E0,-3.423381042E-1,5.677693176E-1,9.982291718E0,1.000428435E1
1.044196583E0,-3.632945251E-1,5.944139099E-1,9.985884247E0,1.001015459E1
1.054135583E0,-3.779640198E-1,6.518943787E-1,1.002255798E1,1.005084532E1
1.064075583E0,-3.623963928E-1,6.867718506E-1,1.008737320E1,1.011721725E1
1.074014583E0,-4.418811035E-1,6.965016174E-1,9.987979889E0,1.002198162E1
1.083953583E0,-4.306544495E-1,6.644682312E-1,9.851014709E0,9.882786656E0
1.093892583E0,-3.369493103E-1,6.382727051E-1,9.761949921E0,9.788595054E0
1.103831583E0,-2.739303589E-1,6.438111877E-1,9.697284393E0,9.722492237E0
1.113771583E0,-2.577639771E-1,6.435118103E-1,9.665550385E0,9.690377390E0
1.123710583E0,-3.047662354E-1,6.125262451E-1,9.677675171E0,9.701828053E0
1.133649583E0,-3.921844482E-1,5.843847656E-1,9.746232605E0,9.771610112E0
1.143588583E0,-3.733236694E-1,6.122268677E-1,9.737700348E0,9.764066794E0
1.153527583E0,-3.668870544E-1,6.093827820E-1,9.674831085E0,9.700943769E0
1.163467583E0,-3.918850708E-1,5.947132874E-1,9.697134705E0,9.723254562E0
1.173406583E0,-3.165916443E-1,6.036946106E-1,9.656269684E0,9.680300701E0
1.183345583E0,-2.821632385E-1,6.194119263E-1,9.591753845E0,9.615873806E0
1.193284583E0,-3.167413330E-1,6.023474121E-1,9.609117737E0,9.633186968E0
1.203224583E0,-3.179388428E-1,6.152206421E-1,9.676627350E0,9.701376109E0
1.213163583E0,-3.236270142E-1,6.303392029E-1,9.785151672E0,9.810772406E0
1.223102583E0,-3.555107117E-1,6.271957397E-1,9.855505371E0,9.881839327E0
1.233041583E0,-3.623963928E-1,6.110293579E-1,9.961634674E0,9.986934134E0
1.242980583E0,-3.191363525E-1,5.785469055E-1,1.002151016E1,1.004326792E1
1.252920583E0,-2.171983337E-1,5.152285767E-1,1.003079086E1,1.004636257E1
1.262859583E0,-2.026785278E-1,4.532574463E-1,9.961185608E0,9.973552006E0
1.272798583E0,-2.409988403E-1,4.402345276E-1,9.912686462E0,9.925383609E0
1.282737583E0,-2.656974792E-1,5.008584595E-1,9.834399261E0,9.850729069E0
1.292676583E0,-3.275189209E-1,5.083428955E-1,9.814939728E0,9.833550885E0
1.302616583E0,-3.442840576E-1,5.789959717E-1,9.779912567E0,9.803084090E0
1.312555583E0,-4.089495850E-1,6.599775696E-1,9.766590271E0,9.797402496E0
1.322494583E0,-4.592449951E-1,7.295828247E-1,9.752369843E0,9.790399104E0
1.332433583E0,-4.819976807E-1,7.517367554E-1,9.702373810E0,9.743381726E0
1.342373583E0,-3.897894287E-1,7.484436035E-1,9.665101318E0,9.701870290E0
1.352312583E0,-3.239263916E-1,7.699987793E-1,9.732760620E0,9.768544196E0
1.362251583E0,-2.911445618E-1,7.951464844E-1,9.767638092E0,9.804273404E0
1.372190583E0,-2.731819153E-1,7.598199463E-1,9.770182800E0,9.803490535E0
1.382129583E0,-2.543211365E-1,7.572752380E-1,9.845476227E0,9.877831096E0
1.392069583E0,-2.267784119E-1,7.411088562E-1,9.923913116E0,9.954130918E0
1.402008583E0,-2.170486450E-1,6.879693604E-1,9.985135803E0,1.001116122E1
1.411947583E0,-2.020797729E-1,6.351292419E-1,9.985285492E0,1.000750477E1
1.421886583E0,-2.242337036E-1,6.081852722E-1,1.000474503E1,1.002572158E1
1.431825583E0,-1.848655701E-1,6.180647278E-1,1.000624191E1,1.002701633E1
1.441765583E0,-1.374142456E-1,6.298901367E-1,9.942175140E0,9.963056297E0
1.451704583E0,-1.694476318E-1,6.429130554E-1,9.942025452E0,9.964232021E0
1.461643583E0,-1.448986816E-1,6.453080750E-1,9.877659302E0,9.899776332E0
1.471582583E0,-1.207987976E-1,6.312373352E-1,9.818831635E0,9.839842864E0
1.481521583E0,-1.365161133E-1,6.119274902E-1,9.835746460E0,9.855709022E0
1.491461583E0,-1.875599670E-1,6.129753113E-1,9.876162415E0,9.896944049E0
1.501400583E0,-2.418969727E-1,6.164181519E-1,9.950408020E0,9.972417222E0
1.511339583E0,-3.008743286E-1,6.038442993E-1,9.984237671E0,1.000700530E1
1.521278583E0,-3.305126953E-1,6.213578796E-1,1.004411316E1,1.006874041E1
1.531217583E0,-2.974314880E-1,6.367758179E-1,1.006896149E1,1.009345998E1
1.541157583E0,-2.941383362E-1,6.143225098E-1,1.001477417E1,1.003790871E1
1.551096583E0,-3.092568970E-1,6.021977234E-1,9.873617706E0,9.896797893E0
1.561035583E0,-3.005749512E-1,6.195616150E-1,9.726324005E0,9.750670774E0
1.570974583E0,-2.793191528E-1,6.001020813E-1,9.675878906E0,9.698493404E0
1.580914583E0,-2.546205139E-1,5.637277222E-1,9.647438049E0,9.667247874E0
1.590853583E0,-2.001338196E-1,5.637277222E-1,9.532926178E0,9.551676502E0
1.600792583E0,-1.962419128E-1,5.528004456E-1,9.440119171E0,9.458326976E0
1.610731583E0,-2.541714478E-1,5.812413025E-1,9.518106995E0,9.539224567E0
1.620670583E0,-2.974314880E-1,6.122268677E-1,9.693841553E0,9.717708129E0
1.630610583E0,-3.204835510E-1,6.298901367E-1,9.798024902E0,9.823480202E0
1.640549583E0,-2.953358459E-1,5.789959717E-1,9.902208252E0,9.923516910E0
1.650488583E0,-2.615061951E-1,5.565426636E-1,1.000684067E1,1.002571620E1
1.660427583E0,-2.195933533E-1,5.508544922E-1,1.005533981E1,1.007281096E1
1.670366583E0,-2.339634705E-1,5.309458923E-1,1.008108627E1,1.009776920E1
1.680306583E0,-1.681004333E-1,5.382806396E-1,1.002165985E1,1.003751314E1
1.690245583E0,-1.088237000E-1,5.535488892E-1,9.968969421E0,9.984919143E0
1.700184583E0,-1.442999268E-1,5.804928589E-1,9.912836151E0,9.930866779E0
1.710123583E0,-1.875599670E-1,6.099815369E-1,9.832153931E0,9.852842591E0
1.720063583E0,-1.636097717E-1,6.732998657E-1,9.754315796E0,9.778894493E0
1.730002583E0,-1.838177490E-1,6.942562866E-1,9.735604706E0,9.762058172E0
1.739941583E0,-2.284249878E-1,6.987469482E-1,9.760902100E0,9.788546116E0
1.749880583E0,-2.155517578E-1,6.800358582E-1,9.835447083E0,9.861284432E0
1.759819583E0,-1.860630798E-1,6.662644958E-1,9.891430664E0,9.915590171E0
1.769759583E0,-1.475930786E-1,6.270460510E-1,9.922565918E0,9.943454373E0
1.779698583E0,-1.700463867E-1,6.092330933E-1,9.981543274E0,1.000156422E1
1.789637583E0,-1.610650635E-1,6.007008362E-1,1.001836670E1,1.003765186E1
1.799576583E0,-1.196012878E-1,6.147715759E-1,1.002540207E1,1.004494575E1
1.809515583E0,-9.595046997E-2,5.885760498E-1,9.970316620E0,9.988135049E0
1.819455583E0,-7.604187012E-2,5.839356995E-1,9.883347473E0,9.900874736E0
1.829393583E0,-5.074447632E-2,6.126759338E-1,9.829758911E0,9.848964771E0
1.839332583E0,-7.933502197E-2,6.089337158E-1,9.770482178E0,9.789760789E0
1.849271583E0,-3.697311401E-2,5.915698242E-1,9.728569336E0,9.746608805E0
1.859210583E0,-1.017883301E-2,5.944139099E-1,9.717192993E0,9.735361892E0
1.869150583E0,-8.232879639E-3,5.947132874E-1,9.755812683E0,9.773926170E0
1.879089583E0,1.511856079E-2,6.453080750E-1,9.882000275E0,9.903059149E0
1.889028583E0,-4.221221924E-2,6.542893982E-1,9.952653351E0,9.974226046E0
1.898967583E0,-1.297801208E-1,6.185137939E-1,9.948312378E0,9.968366033E0
1.908906583E0,-1.432521057E-1,5.544470215E-1,9.842033386E0,9.858679112E0
1.918846583E0,-6.586303711E-2,5.102888489E-1,9.742939453E0,9.756515866E0
1.928785583E0,-4.790039062E-3,4.572990417E-1,9.678872681E0,9.689670878E0
1.938724583E0,3.562591553E-2,4.513114929E-1,9.624835052E0,9.635476172E0
1.948663583E0,1.242416382E-1,5.050497437E-1,9.587113495E0,9.601211194E0
1.958602583E0,1.182540894E-1,5.484594727E-1,9.663903809E0,9.680177098E0
1.968542583E0,7.858657837E-2,5.920188904E-1,9.632918243E0,9.651413166E0
1.978481583E0,-2.814147949E-2,4.870870972E-1,9.586963806E0,9.599370855E0
1.988420583E0,-1.411564636E-1,6.848258972E-1,9.317673798E0,9.343872680E0
1.998359583E0,9.235794067E-2,8.514294434E-1,9.317973175E0,9.357247789E0
2.008299583E0,5.643264771E-2,7.421566772E-1,9.437424774E0,9.466729506E0
2.018238583E0,1.023870850E-1,6.474037170E-1,9.424401855E0,9.447167037E0
2.028177583E0,2.763253784E-1,6.469546509E-1,9.456285553E0,9.482417545E0
2.038116583E0,4.728666687E-1,7.027885437E-1,9.628277893E0,9.665466870E0
2.048055583E0,5.343887329E-1,7.891589355E-1,9.883048096E0,9.928896354E0
2.057995583E0,5.212161255E-1,8.482859802E-1,1.004875351E1,1.009795536E1
2.067934583E0,4.800517273E-1,8.663983154E-1,1.009695328E1,1.014542070E1
2.077873583E0,4.781057739E-1,8.493338013E-1,1.009156448E1,1.013852192E1
2.087812583E0,4.984634399E-1,7.786807251E-1,1.006237518E1,1.010476144E1
2.097751583E0,5.637277222E-1,7.005432129E-1,1.005593857E1,1.009606112E1
2.107691583E0,6.084846497E-1,6.750961304E-1,1.003303619E1,1.007411652E1
2.117630583E0,5.852828979E-1,6.614744568E-1,1.000444565E1,1.004335787E1
2.127569583E0,5.152285767E-1,6.459068298E-1,9.941426697E0,9.975701524E0
2.137508583E0,6.201603699E-1,6.137237549E-1,9.712552643E0,9.751663169E0
2.147447583E0,9.620494080E-1,6.216572571E-1,9.390721893E0,9.460319999E0
2.157387583E0,1.385219421E0,6.644682312E-1,8.979227600E0,9.109713452E0
2.167326583E0,1.736089783E0,7.408094788E-1,8.769064636E0,8.969910870E0
2.177265583E0,1.889820099E0,8.452922058E-1,8.951834564E0,9.188105408E0
2.187204583E0,1.917662201E0,1.033899994E0,9.130862274E0,9.387173344E0
2.197143583E0,1.977088623E0,1.024170227E0,9.309740295E0,9.572307373E0
2.207083583E0,2.099533997E0,8.223898315E-1,9.444759521E0,9.710193121E0
2.217022583E0,2.213896179E0,6.059399414E-1,9.533674622E0,9.806092560E0
2.226961583E0,2.241289215E0,4.351451111E-1,9.773925018E0,1.003704831E1
2.236900583E0,2.151625671E0,3.022215271E-1,1.002659958E1,1.025931430E1
2.246839583E0,2.064656525E0,2.445913696E-1,1.012599289E1,1.033723191E1
2.256779583E0,1.928290100E0,1.799258423E-1,1.006491989E1,1.024955065E1
2.266718583E0,1.781146088E0,5.807922363E-2,9.884994049E0,1.004434975E1
2.276657583E0,1.760189667E0,-6.676116943E-2,9.637408905E0,9.797059514E0
2.286596583E0,1.833237762E0,-1.829196167E-1,9.431736603E0,9.609988326E0
2.296536583E0,1.868115234E0,-2.378553772E-1,9.304052124E0,9.492724353E0
2.306475583E0,1.603315887E0,-2.799179077E-1,9.525741119E0,9.663783925E0
2.316414583E0,1.161584473E0,-2.351609802E-1,9.800120544E0,9.871521760E0
2.326353583E0,7.918533325E-1,-7.694000244E-2,1.002076172E1,1.005229411E1
2.336292583E0,6.685098267E-1,5.792953491E-2,1.004830444E1,1.007068436E1
2.346232583E0,7.237449646E-1,1.149609375E-1,9.909842377E0,9.936900861E0
2.356171583E0,7.384144592E-1,1.103205872E-1,9.826914825E0,9.855236249E0
2.366110583E0,7.183561707E-1,1.008901978E-1,9.818532257E0,9.845292789E0
2.376049583E0,6.385720825E-1,2.261796570E-1,9.920919342E0,9.944021929E0
2.385988583E0,4.905299377E-1,3.278182983E-1,9.872270508E0,9.889884197E0
2.395928583E0,2.900967407E-1,2.650987244E-1,9.456884308E0,9.465045920E0
2.405867583E0,-5.508544922E-2,9.729766846E-2,9.314979401E0,9.315650405E0
2.415806583E0,-1.797761536E-1,3.727249146E-2,9.513167267E0,9.514938789E0
2.425745583E0,-6.271957397E-2,6.810836792E-2,9.770182800E0,9.770621497E0
2.435684583E0,1.910028076E-1,1.276844788E-1,1.005968079E1,1.006230406E1
2.445624583E0,3.619473267E-1,1.227447510E-1,1.021131546E1,1.021846542E1
2.455563583E0,2.820135498E-1,8.352630615E-2,1.017329453E1,1.017754537E1
2.465502583E0,1.463955688E-1,7.379653931E-2,1.002525238E1,1.002659279E1
2.475441583E0,8.322692871E-2,-3.308120728E-2,9.970915375E0,9.971317591E0
2.485380583E0,5.867797852E-2,-1.273851013E-1,1.000728973E1,1.000827247E1
2.495320583E0,1.866618347E-1,-2.302212524E-1,1.017823425E1,1.018254865E1
2.505259583E0,4.787045288E-1,-3.441343689E-1,1.035441788E1,1.037118875E1
2.515198583E0,7.423063660E-1,-4.502636719E-1,1.041638901E1,1.045250765E1
2.525137583E0,1.041085052E0,-5.698649597E-1,1.036639297E1,1.043411268E1
2.535076583E0,1.322948914E0,-7.310797119E-1,1.018586838E1,1.029740676E1
2.545016583E0,1.498084717E0,-8.173004150E-1,9.906848602E0,1.005275520E1
2.554955583E0,1.498982849E0,-8.204438782E-1,9.667196960E0,9.817065489E0
2.564894583E0,1.410516815E0,-7.526348877E-1,9.598639526E0,9.730873430E0
2.574833583E0,1.019978943E0,-6.236032104E-1,9.567953339E0,9.642352882E0
2.584772583E0,5.965095520E-1,-4.923262024E-1,9.767638092E0,9.798212216E0
2.594712583E0,5.281018066E-1,-3.492237854E-1,1.005698639E1,1.007689555E1
2.604651583E0,8.304730225E-1,-4.117936707E-1,1.045216461E1,1.049318848E1
2.614590583E0,1.254092102E0,-7.018904114E-1,1.058898010E1,1.068606086E1
2.624529583E0,1.684746552E0,-1.089434509E0,1.047401917E1,1.066444166E1
2.634468583E0,2.030677185E0,-1.484912109E0,1.035277130E1,1.065403620E1
2.644408583E0,2.021695862E0,-1.760788422E0,1.050201096E1,1.083881286E1
2.654347583E0,1.635199585E0,-1.731748810E0,1.075962524E1,1.102008925E1
2.664286583E0,1.050216064E0,-1.438059540E0,1.106513992E1,1.120751045E1
2.674225583E0,2.258802795E-1,-1.089284821E0,1.124761047E1,1.130249108E1
2.684165583E0,-5.951623535E-1,-7.833210754E-1,1.110435837E1,1.114785113E1
2.694104583E0,-1.174158325E0,-4.430786133E-1,1.098790054E1,1.105933654E1
2.704043583E0,-1.484313354E0,1.811233521E-2,1.065229843E1,1.075523017E1
2.713982583E0,-1.567839661E0,4.243675232E-1,9.996961212E0,1.012805225E1
2.723921583E0,-1.445543976E0,6.286926270E-1,9.413773956E0,9.544841115E0
2.733861583E0,-1.364562378E0,5.641767883E-1,8.963959351E0,9.084761591E0
2.743800583E0,-1.227896576E0,3.891906738E-1,8.879983978E0,8.972921199E0
2.753739583E0,-1.038091278E0,2.056723022E-1,9.117689667E0,9.178899687E0
2.763678583E0,-8.726852417E-1,5.269042969E-2,9.483379211E0,9.523593706E0
2.773617583E0,-6.875202942E-1,-5.553451538E-2,9.768087158E0,9.792410069E0
2.783557583E0,-4.966671753E-1,-1.194515991E-1,9.829609222E0,9.842873789E0
2.793496583E0,-4.411326599E-1,-1.037342834E-1,9.639654236E0,9.650300131E0
2.803435583E0,-3.282673645E-1,-5.254074097E-2,9.497449951E0,9.503266574E0
2.813374583E0,-2.856060791E-1,3.173400879E-2,9.433532867E0,9.437908679E0
2.823313583E0,-2.044747925E-1,1.258882141E-1,9.444609833E0,9.447661757E0
2.833253500E0,-2.290237427E-2,6.421646118E-2,9.559870148E0,9.560113258E0
2.843192500E0,2.856060791E-1,-1.646575928E-1,9.742191010E0,9.747767366E0
2.853131500E0,6.620732117E-1,-3.824546814E-1,9.998009033E0,1.002720286E1
2.863070500E0,9.626481628E-1,-5.245092773E-1,1.022673340E1,1.028532340E1
2.873009500E0,1.032852173E0,-5.409750366E-1,1.039872574E1,1.046388716E1
2.882949500E0,9.005273438E-1,-4.966671753E-1,1.044183609E1,1.049235763E1
2.892888500E0,7.689509583E-1,-3.842509460E-1,1.039139099E1,1.042688549E1
2.902827500E0,7.445516968E-1,-2.694396973E-1,1.038136185E1,1.041151424E1
2.912766500E0,6.611750793E-1,-1.914518738E-1,1.031400192E1,1.033694549E1
2.922705500E0,4.581971741E-1,-1.224453735E-1,1.028645920E1,1.029738706E1
2.932645500E0,3.972738647E-1,-1.022373962E-1,1.021356079E1,1.022179549E1
2.942584500E0,3.727249146E-1,-1.484912109E-1,1.014694931E1,1.015487833E1
2.952523500E0,4.427792358E-1,-1.790277100E-1,9.937385101E0,9.948855564E0
2.962462500E0,5.948629761E-1,-2.552192688E-1,9.676028595E0,9.697655810E0
2.972401500E0,7.114704895E-1,-3.237767029E-1,9.545350342E0,9.577303105E0
2.982341500E0,7.934999084E-1,-3.501219177E-1,9.533824310E0,9.573193482E0
2.992280500E0,7.942483521E-1,-3.046165466E-1,9.626930695E0,9.664440816E0
3.002219500E0,6.551875305E-1,-2.134561157E-1,9.771679688E0,9.795946005E0
3.012158500E0,4.842430115E-1,-7.319778442E-2,9.922416229E0,9.934495107E0
3.022097500E0,2.830613708E-1,3.293151855E-2,1.006641678E1,1.007044959E1
3.032037500E0,5.119354248E-2,1.678010559E-1,1.002704865E1,1.002858327E1
3.041976500E0,-5.194198608E-2,2.619552612E-1,9.941576385E0,9.945162621E0
3.051915500E0,-5.942642212E-2,3.453318787E-1,9.834099884E0,9.840340753E0
3.061854500E0,-8.113128662E-2,4.019142151E-1,9.765991516E0,9.774595010E0
3.071793500E0,-1.089733887E-1,4.096980286E-1,9.765542450E0,9.774740253E0
3.081733500E0,-7.738906860E-2,4.336482239E-1,9.846823425E0,9.856671417E0
3.091672500E0,-2.439926147E-2,4.923262024E-1,9.881102142E0,9.893389710E0
3.101611500E0,4.715194702E-2,5.001100159E-1,9.905800781E0,9.918529248E0
3.111550500E0,1.914518738E-1,4.763095093E-1,9.921667786E0,9.934939165E0
3.121489500E0,3.444337463E-1,4.558021545E-1,9.915829926E0,9.932274328E0
3.131429500E0,4.489164734E-1,4.694238281E-1,9.961185608E0,9.982339578E0
3.141368500E0,4.671784973E-1,4.595443726E-1,1.003677841E1,1.005814882E1
3.151307500E0,4.469705200E-1,4.406835938E-1,1.012030472E1,1.013975109E1
3.161246500E0,3.644920349E-1,4.427792358E-1,1.020951920E1,1.022561441E1
3.171185500E0,3.164419556E-1,4.972659302E-1,1.014635056E1,1.016345603E1
3.181125500E0,2.880010986E-1,4.632865906E-1,9.971813507E0,9.986723372E0
3.191064500E0,2.650987244E-1,3.993695068E-1,9.784103851E0,9.795838990E0
3.201003500E0,3.115022278E-1,4.050576782E-1,9.678423615E0,9.691903271E0
3.210942500E0,2.758763123E-1,3.597019958E-1,9.682315521E0,9.692921496E0
3.220881500E0,2.498304749E-1,2.451901245E-1,9.815538483E0,9.821778310E0
3.230821500E0,2.086660767E-1,2.040257263E-1,1.002240829E1,1.002665627E1
3.240760500E0,1.200503540E-1,2.055226135E-1,1.012629227E1,1.012908914E1
3.250699500E0,6.032455444E-2,1.950444031E-1,1.013841705E1,1.014047246E1
3.260638500E0,-7.035369873E-3,1.963916016E-1,1.003423370E1,1.003615789E1
3.270577500E0,-7.963439941E-2,2.079176331E-1,9.911938019E0,9.914438293E0
3.280517500E0,-8.187973022E-2,2.004331970E-1,9.862241364E0,9.864617705E0
3.290456500E0,-2.484832764E-2,1.571731567E-1,9.947264557E0,9.948537229E0
3.300395500E0,1.437011719E-2,7.783813477E-2,1.007180557E1,1.007211660E1
3.310334500E0,4.191284180E-2,-6.421646118E-2,1.025352768E1,1.025381443E1
3.320273500E0,6.586303711E-2,-9.879455566E-2,1.039992325E1,1.040060103E1
3.330213500E0,5.538482666E-2,-8.457412720E-2,1.037941589E1,1.037990822E1
3.340152500E0,-1.047821045E-3,-7.798782349E-2,1.027687912E1,1.027717508E1
3.350091500E0,-4.984634399E-2,-4.550537109E-2,1.016625916E1,1.016648320E1
3.360030500E0,-1.715432739E-1,2.649490356E-2,1.010593460E1,1.010742515E1
3.369969500E0,-3.571572876E-1,8.247848511E-2,1.019005966E1,1.019665043E1
3.379909500E0,-4.432283020E-1,1.264869690E-1,1.019155655E1,1.020197408E1
3.389848500E0,-5.272036743E-1,1.199006653E-1,1.013497421E1,1.014938531E1
3.399787500E0,-6.379733276E-1,5.254074097E-2,1.007973907E1,1.010004506E1
3.409726500E0,-7.002438354E-1,4.266128540E-2,1.003198837E1,1.005648806E1
3.419665500E0,-6.926097107E-1,6.062393188E-2,1.004321503E1,1.006725144E1
3.429605500E0,-7.467970276E-1,6.661148071E-2,1.005474106E1,1.008265643E1
3.439544500E0,-8.833131409E-1,6.032455444E-2,1.011237122E1,1.015105575E1
3.449483500E0,-9.556127930E-1,6.391708374E-2,1.017958145E1,1.022453714E1
3.459422500E0,-9.083111572E-1,1.481918335E-2,1.020981857E1,1.025015337E1
3.469361500E0,-8.878038025E-1,-5.254074097E-2,1.019829254E1,1.023699794E1
3.479301500E0,-7.720944214E-1,-1.422042847E-1,1.014904495E1,1.017936468E1
3.489240500E0,-6.956034851E-1,-2.502795410E-1,1.012464569E1,1.015159861E1
3.499179500E0,-6.842271423E-1,-2.496807861E-1,1.018107834E1,1.020709868E1
3.509118500E0,-7.424560547E-1,-1.877096558E-1,1.023541534E1,1.026402471E1
3.519058500E0,-7.846682739E-1,-2.381547546E-1,1.029723679E1,1.032983579E1
3.528997500E0,-6.634204102E-1,-3.558100891E-1,1.036863831E1,1.039593131E1
3.538936500E0,-3.068618774E-1,-4.761598206E-1,1.050470535E1,1.051996801E1
3.548875500E0,2.185455322E-2,-5.709127808E-1,1.075992462E1,1.077508222E1
3.558814500E0,2.588117981E-1,-6.167175293E-1,1.084210373E1,1.086271317E1
3.568754500E0,3.725752258E-1,-7.095245361E-1,1.084434906E1,1.087392036E1
3.578693500E0,4.113446045E-1,-7.722441101E-1,1.081994980E1,1.085526964E1
3.588632500E0,3.697311401E-1,-7.051835632E-1,1.050066376E1,1.053080834E1
3.598571500E0,1.718426514E-1,-6.096821594E-1,1.001357666E1,1.003359157E1
3.608510500E0,-1.008901978E-1,-4.863386536E-1,9.531279602E0,9.544212643E0
3.618450500E0,-3.273692322E-1,-3.406915283E-1,9.042994995E0,9.055329912E0
3.628389500E0,-5.432203674E-1,-2.784210205E-1,8.679700470E0,8.701138252E0
3.638328500E0,-7.881111145E-1,-3.344046021E-1,8.584348755E0,8.626933935E0
3.648267500E0,-8.839118958E-1,-5.468128967E-1,8.890312500E0,8.950863697E0
3.658206500E0,-7.691006470E-1,-7.406597900E-1,9.293723602E0,9.354859225E0
3.668146500E0,-3.258723450E-1,-8.225395203E-1,9.556576996E0,9.597443822E0
3.678085500E0,1.969903564E-1,-9.937834167E-1,9.554032288E0,9.607598224E0
3.688024500E0,5.189707947E-1,-1.272952881E0,9.306297455E0,9.407279736E0
3.697963500E0,6.947053528E-1,-1.463057556E0,9.100325775E0,9.243326358E0
3.707902500E0,7.433541870E-1,-1.454076233E0,8.999285889E0,9.146259325E0
3.717841500E0,4.920268250E-1,-1.372795258E0,9.115743713E0,9.231654276E0
3.727781500E0,1.407073975E-1,-1.329684906E0,9.277856598E0,9.373712369E0
3.737720500E0,-1.344204712E-1,-1.332079926E0,9.404343567E0,9.499167527E0
3.747659500E0,-2.442919922E-1,-1.376836853E0,9.403894501E0,9.507291416E0
3.757598500E0,2.739303589E-2,-1.410217438E0,9.279503174E0,9.386087723E0
3.767538500E0,4.472698975E-1,-1.477277985E0,9.101672974E0,9.231622367E0
3.777477500E0,6.994953918E-1,-1.524429932E0,9.169481964E0,9.321618953E0
3.787416500E0,8.434959412E-1,-1.545236664E0,9.388626251E0,9.552253380E0
3.797355500E0,9.584568787E-1,-1.562750244E0,9.605225830E0,9.778608856E0
3.807294500E0,8.801696777E-1,-1.577120361E0,9.944869537E0,1.010754359E1
3.817234500E0,6.610253906E-1,-1.639839935E0,1.021400986E1,1.036590695E1
3.827173833E0,6.786886597E-1,-1.734892273E0,1.032148636E1,1.048825773E1
3.837112833E0,9.348060608E-1,-1.663341064E0,1.037088364E1,1.054494160E1
3.847051833E0,1.226699066E0,-1.435664520E0,1.033525772E1,1.050635405E1
3.856990833E0,1.530567169E0,-1.172062683E0,1.034453842E1,1.052263474E1
3.866930833E0,1.685494995E0,-9.138496399E-1,1.040980270E1,1.058489522E1
3.876869833E0,1.654808807E0,-6.421646118E-1,1.051099228E1,1.065981830E1
3.886808833E0,1.593586121E0,-2.977308655E-1,1.056278458E1,1.068646707E1
3.896747833E0,1.356030121E0,-7.334747314E-2,1.061412781E1,1.070064982E1
3.906686833E0,1.012494507E0,-2.095642090E-3,1.053344559E1,1.058199534E1
3.916626833E0,6.072871399E-1,-1.576222229E-1,1.064077240E1,1.065925324E1
3.926565833E0,3.902384949E-1,-3.251239014E-1,1.086036575E1,1.087223693E1
3.936504833E0,5.046006775E-1,-3.450325012E-1,1.097517700E1,1.099218720E1
3.946443833E0,9.136999512E-1,-1.788780212E-1,1.094134735E1,1.098088916E1
3.956382833E0,1.526226196E0,-3.008743286E-2,1.072759186E1,1.083565867E1
3.966322833E0,1.958826599E0,2.604583740E-2,1.063164139E1,1.081061879E1
3.976261833E0,2.142344971E0,5.119354248E-2,1.053164932E1,1.074746017E1
3.986200833E0,2.006876678E0,1.145118713E-1,1.042342438E1,1.061548128E1
3.996139833E0,1.730102234E0,1.266366577E-1,1.028122009E1,1.042654196E1
4.006078833E0,1.339863739E0,1.146615601E-1,1.015458344E1,1.024323908E1
4.016018833E0,9.392967224E-1,1.278341675E-1,9.939480743E0,9.984582984E0
4.025957833E0,5.980064392E-1,1.326242065E-1,9.707463226E0,9.726769411E0
4.035896833E0,3.300636292E-1,7.469467163E-2,9.590556335E0,9.596525002E0
4.045835833E0,2.429447937E-1,9.595046997E-2,9.548044739E0,9.551616983E0
4.055774833E0,2.192939758E-1,9.654922485E-2,9.582922211E0,9.585917259E0
4.065714833E0,2.963836670E-1,8.592132568E-2,9.667646027E0,9.672569744E0
4.075653833E0,6.087840271E-1,1.478924561E-1,9.670490112E0,9.690762054E0
4.085592833E0,1.014590149E0,2.170486450E-1,9.567354584E0,9.623449330E0
4.095531833E0,1.193468170E0,2.288740540E-1,9.450896759E0,9.528703960E0
4.105470833E0,1.196312256E0,2.471360779E-1,9.379046173E0,9.458263391E0
4.115410833E0,1.070873108E0,2.486329651E-1,9.472002869E0,9.535587339E0
4.125349833E0,6.929090881E-1,2.221380615E-1,9.737850037E0,9.764998293E0
4.135288833E0,2.577639771E-1,1.833686829E-1,9.890233154E0,9.895290708E0
4.145227833E0,1.122665405E-2,1.922003174E-1,9.947414246E0,9.949277219E0
4.155166833E0,-1.670526123E-1,2.535726929E-1,9.963281250E0,9.967907451E0
4.165106833E0,-2.224374390E-1,3.743714905E-1,9.788145447E0,9.797827500E0
4.175045833E0,-1.948947144E-1,4.986131287E-1,9.487570496E0,9.502662412E0
4.184984833E0,-2.378553772E-1,5.728587341E-1,9.071585541E0,9.092766715E0
4.194923833E0,-2.490820312E-1,6.141728210E-1,8.762328644E0,8.787357588E0
4.204862833E0,-9.984237671E-2,6.685098267E-1,8.502618713E0,8.529443058E0
4.214801833E0,5.508544922E-2,7.210505676E-1,8.452772369E0,8.483649513E0
4.224741833E0,1.558259583E-1,7.400610352E-1,8.558452606E0,8.591803249E0
4.234680833E0,1.451980591E-1,7.719447327E-1,8.889264679E0,8.923900923E0
4.244619833E0,2.395019531E-2,8.458909607E-1,9.206455078E0,9.245264747E0
4.254558833E0,-1.538800049E-1,8.777746582E-1,9.476643219E0,9.518452296E0
4.264497833E0,-2.854563904E-1,9.283694458E-1,9.647737427E0,9.696504145E0
4.274437833E0,-3.369493103E-1,9.466314697E-1,9.760003967E0,9.811591279E0
4.284376833E0,-3.356021118E-1,9.672885132E-1,9.823322296E0,9.876534654E0
4.294315833E0,-3.508703613E-1,9.521699524E-1,9.848470001E0,9.900611041E0
4.304254833E0,-3.499722290E-1,9.551637268E-1,9.806257782E0,9.858879753E0
4.314193833E0,-3.302133179E-1,9.897418213E-1,9.686357117E0,9.742389024E0
4.324133833E0,-3.881428528E-1,1.031205597E0,9.558672638E0,9.621967702E0
4.334072833E0,-4.649331665E-1,1.066831512E0,9.433832245E0,9.505339718E0
4.344011833E0,-5.264552307E-1,1.077908478E0,9.404044189E0,9.480247302E0
4.353950833E0,-5.712121582E-1,1.034049683E0,9.427994385E0,9.501716697E0
4.363889833E0,-5.635780334E-1,1.005159760E0,9.435778198E0,9.505886416E0
4.373829833E0,-5.343887329E-1,9.846524048E-1,9.513616333E0,9.579353183E0
4.383768833E0,-6.577322388E-1,9.563612366E-1,9.681567078E0,9.750896348E0
4.393707833E0,-8.129594421E-1,9.925859070E-1,9.829160156E0,9.912543529E0
4.403646833E0,-9.666897583E-1,9.762698364E-1,9.990225220E0,1.008425465E1
4.413585833E0,-1.031205597E0,9.506730652E-1,1.002091141E1,1.011858833E1
4.423525833E0,-9.494755554E-1,9.129515076E-1,1.005249573E1,1.013842466E1
4.433464833E0,-7.912545776E-1,9.225315857E-1,1.001477417E1,1.008825307E1
4.443403833E0,-6.267466736E-1,8.623567200E-1,9.935888214E0,9.992914745E0
4.453342833E0,-4.626878357E-1,8.267308044E-1,9.793683929E0,9.839400834E0
4.463281833E0,-4.275109863E-1,8.231382751E-1,9.739496613E0,9.783563590E0
4.473221833E0,-4.921765137E-1,8.065228271E-1,9.795180817E0,9.840644492E0
4.483160833E0,-5.959107971E-1,7.890092468E-1,9.826166382E0,9.875788122E0
4.493099833E0,-7.280859375E-1,7.792794800E-1,9.882599030E0,9.939977325E0
4.503038833E0,-8.062234497E-1,7.924520874E-1,9.963580627E0,1.002750794E1
4.512977833E0,-1.002016296E0,7.976911926E-1,9.898615723E0,9.981129251E0
4.522917833E0,-1.060843964E0,7.717950439E-1,9.977950745E0,1.006382425E1
4.532856833E0,-1.025667114E0,7.327262878E-1,9.920021210E0,9.999785080E0
4.542795833E0,-9.086105347E-1,6.557862854E-1,9.914782104E0,9.977902231E0
4.552734833E0,-7.815248108E-1,5.891748047E-1,9.971214752E0,1.001913328E1
4.562673833E0,-5.706134033E-1,5.887257385E-1,9.943372650E0,9.977116683E0
4.572613833E0,-3.721261597E-1,6.005511475E-1,9.943821716E0,9.968888097E0
4.582552833E0,-2.752775574E-1,5.864804077E-1,9.977351990E0,9.998364353E0
4.592491833E0,-2.731819153E-1,5.495072937E-1,1.002061203E1,1.003938504E1
4.602430833E0,-3.056643677E-1,5.351371765E-1,1.004141876E1,1.006031278E1
4.612369833E0,-3.225791931E-1,4.677772522E-1,1.007943970E1,1.009544340E1
4.622309833E0,-3.796105957E-1,3.752696228E-1,1.013467484E1,1.014872236E1
4.632248833E0,-4.459226990E-1,3.351530457E-1,1.018347336E1,1.019874033E1
4.642187833E0,-4.655319214E-1,3.305126953E-1,1.013227982E1,1.014835222E1
4.652126833E0,-4.487667847E-1,3.297642517E-1,1.009979736E1,1.011513929E1
4.662065833E0,-5.146298218E-1,3.466790771E-1,1.010877869E1,1.012780513E1
4.672005833E0,-6.186634827E-1,3.893403625E-1,1.002076172E1,1.004738751E1
4.681944833E0,-7.412585449E-1,4.164340210E-1,9.899064789E0,9.935510315E0
4.691883833E0,-7.837701416E-1,4.135899353E-1,9.784103851E0,9.824155966E0
4.701822833E0,-7.891589355E-1,4.239184570E-1,9.568103027E0,9.609946630E0
4.711761833E0,-7.286846924E-1,3.797602844E-1,9.287586365E0,9.323865064E0
4.721701833E0,-7.816744995E-1,3.601510620E-1,9.055419159E0,9.096226688E0
4.731640833E0,-8.643026733E-1,3.891906738E-1,9.057664490E0,9.107127676E0
4.741579833E0,-8.538244629E-1,4.501139832E-1,9.308243408E0,9.358152283E0
4.751518833E0,-9.342073059E-1,4.438270569E-1,9.366023254E0,9.422956932E0
4.761457833E0,-1.185235291E0,3.442840576E-1,9.461075592E0,9.541240253E0
4.771397833E0,-1.348994751E0,2.710862732E-1,9.822274475E0,9.918182821E0
4.781336833E0,-1.376088409E0,3.100053406E-1,1.009815079E1,1.019619399E1
4.791275833E0,-1.489103394E0,3.359014893E-1,1.033600616E1,1.044812338E1
4.801214833E0,-1.554667053E0,2.290237427E-1,1.047431854E1,1.059154335E1
4.811153833E0,-1.573677521E0,1.543290710E-1,1.038300842E1,1.050272071E1
4.821093833E0,-1.472637634E0,1.966909790E-1,1.018197647E1,1.028980047E1
4.831032625E0,-1.215622101E0,2.463876343E-1,1.016745667E1,1.024283257E1
4.840971625E0,-8.851094055E-1,2.951861572E-1,1.045156586E1,1.049313025E1
4.850910625E0,-6.568341064E-1,3.296145630E-1,1.061322968E1,1.063864281E1
4.860849625E0,-5.858816528E-1,2.573149109E-1,1.062954575E1,1.064878918E1
4.870789625E0,-5.947132874E-1,1.911524963E-1,1.071816147E1,1.073634987E1
4.880728625E0,-4.864883423E-1,2.258802795E-1,1.079584991E1,1.080916593E1
4.890667625E0,-4.983137512E-1,3.574566650E-1,1.081231567E1,1.082969354E1
4.900606625E0,-7.548802185E-1,3.983216858E-1,1.071426956E1,1.074821271E1
4.910545625E0,-9.921368408E-1,4.321513367E-1,1.054452255E1,1.059990784E1
4.920485625E0,-1.122665405E0,4.567002869E-1,1.050725006E1,1.057692094E1
4.930424625E0,-1.211879883E0,5.739065552E-1,1.044542862E1,1.053114432E1
4.940363625E0,-1.262624359E0,7.589218140E-1,1.019035904E1,1.029629059E1
4.950302625E0,-1.160237274E0,9.020242310E-1,9.961934052E0,1.006975314E1
4.960241625E0,-9.160949707E-1,1.020428009E0,9.771679688E0,9.867432657E0
4.970180625E0,-7.984396362E-1,1.009500732E0,9.712552643E0,9.797462754E0
4.980120625E0,-8.301736450E-1,9.472302246E-1,9.577982483E0,9.660444183E0
4.990059625E0,-7.499404907E-1,9.177415466E-1,9.369466095E0,9.444128080E0
4.999998625E0,-6.566844177E-1,9.075627136E-1,9.205107880E0,9.273020844E0
5.009937625E0,-5.471122742E-1,8.774752808E-1,9.132658539E0,9.191014454E0
5.019876625E0,-2.110610962E-1,7.812254333E-1,9.268126831E0,9.303388357E0
5.029816625E0,4.550537109E-2,6.864724731E-1,9.365574188E0,9.390809074E0
5.039755625E0,2.332150269E-1,7.030879211E-1,9.626481628E0,9.654940208E0
5.049694625E0,2.167492676E-1,6.544390869E-1,9.837991791E0,9.862117077E0
5.059633625E0,1.258882141E-1,5.557942200E-1,9.864935760E0,9.881382121E0
5.069572625E0,1.317260742E-1,4.584965515E-1,1.000130219E1,1.001267278E1
5.079512625E0,1.369651794E-1,3.579057312E-1,1.005593857E1,1.006323787E1
5.089451625E0,2.047741699E-1,2.074685669E-1,9.978848877E0,9.983105758E0
5.099390625E0,3.923341370E-1,8.232879639E-2,9.949509888E0,9.957582594E0
5.109329625E0,5.601351929E-1,-4.370910645E-2,9.978250122E0,9.994055104E0
5.119268625E0,6.718029785E-1,-1.448986816E-1,1.007075775E1,1.009418033E1
5.129208625E0,9.592053223E-1,-1.425036621E-1,9.851014709E0,9.898629852E0
5.139147625E0,1.174607391E0,-2.456391907E-1,9.814041595E0,9.887135762E0
5.149086625E0,1.130748596E0,-4.746629333E-1,9.956844635E0,1.003208116E1
5.159025625E0,9.033714294E-1,-6.390211487E-1,1.007494904E1,1.013553284E1
5.168964625E0,6.848258972E-1,-7.319778442E-1,1.026325745E1,1.031209152E1
5.178904625E0,7.322772217E-1,-8.074209595E-1,1.005354355E1,1.011246243E1
5.188843625E0,8.964857483E-1,-8.562194824E-1,9.757608948E0,9.836042440E0
5.198782625E0,4.562512207E-1,-6.569837952E-1,1.094269455E1,1.097188939E1
5.208721625E0,1.287322998E-1,-7.405101013E-1,1.128608047E1,1.131108039E1
5.218660625E0,-1.577719116E-1,-8.671467590E-1,1.101409607E1,1.104930530E1
5.228600625E0,-3.088078308E-1,-1.073268127E0,1.069136719E1,1.074953948E1
5.238539625E0,-2.094145203E-1,-1.284029846E0,1.088760910E1,1.096506357E1
5.248478625E0,1.071771240E-1,-1.330283661E0,1.118339401E1,1.126274581E1
5.258417625E0,2.880010986E-1,-1.293011169E0,1.146316223E1,1.153945020E1
5.268356625E0,4.830455017E-1,-1.222956848E0,1.120584732E1,1.128272886E1
5.278296625E0,5.303471375E-1,-1.214274902E0,1.080228653E1,1.088324979E1
5.288235625E0,5.830375671E-1,-1.175954590E0,1.074929672E1,1.082913579E1
5.298174625E0,6.921606445E-1,-1.077010345E0,1.048524582E1,1.056311590E1
5.308113625E0,7.256909180E-1,-1.046922913E0,1.008602600E1,1.016614949E1
5.318052625E0,9.018745422E-1,-1.034798126E0,9.892927551E0,9.987702458E0
5.327992625E0,1.105600891E0,-8.711883545E-1,9.947414246E0,1.004651047E1
5.337931625E0,1.083297272E0,-6.276448059E-1,1.010234207E1,1.017962604E1
5.347870625E0,7.523355103E-1,-5.438191223E-1,9.977202301E0,1.002029509E1
5.357809625E0,2.978805542E-1,-6.155200195E-1,9.767039337E0,9.790947612E0
5.367748625E0,1.474433899E-1,-6.993457031E-1,9.656868439E0,9.683281056E0
5.377687625E0,1.898052979E-1,-6.388714600E-1,9.722731476E0,9.745547196E0
5.387627625E0,3.812571716E-1,-3.360511780E-1,9.686057739E0,9.699381524E0
5.397566625E0,3.902384949E-1,-2.799179077E-2,9.606573029E0,9.614536649E0
5.407505625E0,1.739382935E-1,8.547225952E-2,9.424252167E0,9.426244689E0
5.417444625E0,3.008743286E-2,6.271957397E-2,9.184301147E0,9.184564582E0
5.427383625E0,-6.735992432E-2,5.284011841E-2,9.004375305E0,9.004782289E0
5.437323625E0,-7.364685059E-2,3.083587646E-2,8.941206665E0,8.941563137E0
5.447262625E0,1.092727661E-2,5.194198608E-2,8.949738922E0,8.949896321E0
5.457201625E0,-6.436614990E-3,3.682342529E-2,9.215286713E0,9.215362532E0
5.467140625E0,-8.412506104E-2,5.463638306E-2,9.463320923E0,9.463852548E0
5.477079625E0,-1.362167358E-1,1.285826111E-1,9.367819519E0,9.369692152E0
5.487019625E0,-1.402583313E-1,1.805245972E-1,9.365873566E0,9.368663148E0
5.496958625E0,-1.441502380E-1,1.845661926E-1,9.372609558E0,9.375534859E0
5.506897625E0,-2.733316040E-1,1.410067749E-1,9.297914886E0,9.303000286E0
5.516836625E0,-3.056643677E-1,3.412902832E-2,9.312734070E0,9.317811511E0
5.526775625E0,-3.124003601E-1,-2.305206299E-2,9.291328583E0,9.296607565E0
5.536715625E0,-2.110610962E-1,1.556762695E-2,9.159003754E0,9.161448515E0
5.546654625E0,-5.478607178E-2,1.302291870E-1,9.164242859E0,9.165331872E0
5.556593625E0,1.781295776E-1,2.995271301E-1,9.151369629E0,9.158002661E0
5.566532625E0,2.115101624E-1,3.629951477E-1,9.150920563E0,9.160559436E0
5.576471625E0,1.555265808E-1,4.258644104E-1,9.324260101E0,9.335275864E0
5.586411625E0,8.532257080E-3,4.718188477E-1,9.412127380E0,9.423949684E0
5.596350625E0,-1.204994202E-1,5.043013000E-1,9.345066833E0,9.359439835E0
5.606289625E0,-1.074765015E-1,5.599855042E-1,9.154812469E0,9.172552879E0
5.616228625E0,-1.016386414E-1,5.533992004E-1,9.045240326E0,9.062723302E0
5.626167625E0,-1.202000427E-1,5.807922363E-1,9.217831421E0,9.236892539E0
5.636107625E0,-8.217910767E-2,5.819897461E-1,9.419462128E0,9.437782168E0
5.646046625E0,-4.864883423E-2,5.161267090E-1,9.239236908E0,9.253769617E0
5.655985625E0,-2.544708252E-2,4.891827393E-1,9.150321808E0,9.163423841E0
5.665924625E0,-2.395019531E-3,5.551954651E-1,9.206904144E0,9.223628986E0
5.675863625E0,-4.191284180E-3,6.843768311E-1,9.185798035E0,9.211258044E0
5.685802625E0,-9.909393311E-2,7.330256653E-1,9.135502625E0,9.165399851E0
5.695742625E0,-1.839674377E-1,7.450007629E-1,9.198521576E0,9.230475033E0
5.705681625E0,-2.803669739E-1,6.831793213E-1,9.333540802E0,9.362709198E0
5.715620625E0,-2.980302429E-1,6.566844177E-1,9.400900726E0,9.428520081E0
5.725559625E0,-3.513194275E-1,6.740483093E-1,9.617051239E0,9.647043122E0
5.735498625E0,-3.656895447E-1,6.581813049E-1,9.851912842E0,9.880643608E0
5.745438625E0,-3.936813354E-1,5.240602112E-1,1.008737320E1,1.010864591E1
5.755377625E0,-2.794688416E-1,2.812651062E-1,1.026565247E1,1.027330684E1
5.765316625E0,-8.831634521E-3,1.118174744E-1,1.046054718E1,1.046114852E1
5.775255625E0,2.082170105E-1,2.320175171E-2,1.061442719E1,1.061649458E1
5.785194625E0,2.023791504E-1,-1.571731567E-2,1.070019882E1,1.070212405E1
5.795134625E0,7.334747314E-3,1.257385254E-2,1.070947952E1,1.070948942E1
5.805073625E0,-1.517843628E-1,-1.511856079E-2,1.053494247E1,1.053604670E1
5.815012625E0,-1.576222229E-1,-5.733078003E-2,1.026924500E1,1.027061460E1
5.824951625E0,-6.436614990E-2,-6.421646118E-2,1.022957748E1,1.022998154E1
5.834891125E0,9.071136475E-2,-3.876937866E-2,1.032837204E1,1.032884314E1
5.844831125E0,2.242337036E-1,-8.217910767E-2,1.040276733E1,1.040550827E1
5.854770125E0,3.122506714E-1,-1.463955688E-1,1.033001862E1,1.033577364E1
5.864709125E0,4.852908325E-1,-8.562194824E-2,1.014799713E1,1.015995493E1
5.874648125E0,6.050418091E-1,8.981323242E-3,9.902807007E0,9.921277280E0
5.884587125E0,6.342311096E-1,1.457968140E-1,9.642947388E0,9.664881796E0
5.894527125E0,5.963598633E-1,2.222877502E-1,9.472751312E0,9.494107349E0
5.904466125E0,5.451663208E-1,3.124003601E-1,9.339228973E0,9.360341774E0
5.914405125E0,4.957690430E-1,4.505630493E-1,9.232800293E0,9.257072715E0
5.924344125E0,3.766168213E-1,5.881269836E-1,9.189240875E0,9.215740960E0
5.934283125E0,2.136058044E-1,7.331753540E-1,9.195228424E0,9.226884594E0
5.944223125E0,2.245330811E-3,8.066725159E-1,9.353748779E0,9.388468555E0
5.954162125E0,-1.558259583E-1,7.589218140E-1,9.512718201E0,9.544215610E0
5.964101125E0,-1.580712891E-1,5.679190063E-1,9.706714783E0,9.724599241E0
5.974040125E0,4.266128540E-2,3.345542908E-1,9.982142029E0,9.987837906E0
5.983979125E0,3.876937866E-1,1.775308228E-1,1.026250900E1,1.027136382E1
5.993919125E0,6.676116943E-1,1.757345581E-1,1.041653870E1,1.043939014E1
6.003858125E0,6.948550415E-1,1.457968140E-1,1.051608170E1,1.054002156E1
6.013797125E0,5.438191223E-1,9.400451660E-2,1.045830185E1,1.047285318E1
6.023736125E0,3.953279114E-1,7.185058594E-2,1.035142410E1,1.035921945E1
6.033675125E0,3.703298950E-1,1.291813660E-1,1.021520737E1,1.022273416E1
6.043614125E0,3.803590393E-1,2.221380615E-1,1.013946487E1,1.014902785E1
6.053554125E0,4.569996643E-1,2.377056885E-1,1.001956421E1,1.003279720E1
6.063493125E0,5.224136353E-1,1.993853760E-1,9.857750702E0,9.873597087E0
6.073432125E0,5.959107971E-1,1.242416382E-1,9.705816650E0,9.724886761E0
6.083371125E0,7.261399841E-1,3.996688843E-2,9.559570770E0,9.587193017E0
6.093310125E0,7.530839539E-1,1.215472412E-1,9.526639252E0,9.557131610E0
6.103250125E0,6.517446899E-1,2.920426941E-1,9.721983032E0,9.748180043E0
6.113189125E0,4.628375244E-1,3.947291565E-1,9.803563385E0,9.822417458E0
6.123128125E0,2.513273621E-1,4.287084961E-1,9.683063965E0,9.695807556E0
6.133067125E0,6.795867920E-2,4.544549561E-1,9.593101044E0,9.604099923E0
6.143006125E0,-6.990463257E-2,4.153862000E-1,9.554181976E0,9.563463054E0
6.152946125E0,-7.185058594E-2,3.591032410E-1,9.608069916E0,9.615046810E0
6.162885125E0,4.071533203E-2,3.242257690E-1,9.593999176E0,9.599562504E0
6.172824125E0,3.282673645E-1,2.044747925E-1,9.571695557E0,9.579505480E0
6.182763125E0,7.851173401E-1,2.484832764E-2,9.492959290E0,9.525403023E0
6.192702125E0,1.278042297E0,-1.041833496E-1,9.394464111E0,9.481571717E0
6.202642125E0,1.671124878E0,-1.764830017E-1,9.378896484E0,9.528247681E0
6.212581125E0,1.793270874E0,-1.698966980E-1,9.556876373E0,9.725151481E0
6.222520125E0,1.690434723E0,-1.339714050E-1,9.941726074E0,1.008530789E1
6.232459125E0,1.512903900E0,-1.160087585E-1,1.009351044E1,1.020692359E1
6.242398125E0,1.075363770E0,-1.448986816E-1,9.952653351E0,1.001162882E1
6.252337125E0,5.324427795E-1,-1.754351807E-1,9.654922485E0,9.671184054E0
6.262277125E0,1.660047913E-1,-1.953437805E-1,9.422605591E0,9.426092133E0
6.272216125E0,-2.155517578E-2,-1.106199646E-1,9.547296295E0,9.547961455E0
6.282155125E0,6.421646118E-2,1.860630798E-1,9.676777039E0,9.678778698E0
6.292094125E0,3.444337463E-1,4.483177185E-1,9.836644592E0,9.852877763E0
6.302033125E0,7.806266785E-1,5.725593567E-1,1.003797592E1,1.008455070E1
6.311973125E0,1.037791901E0,5.444178772E-1,9.979747009E0,1.004832092E1
6.321912125E0,1.197060699E0,2.974314880E-1,9.767787781E0,9.845359208E0
6.331851125E0,1.446741486E0,-1.047821045E-2,9.543404388E0,9.652447257E0
6.341790125E0,1.658401337E0,-3.564088440E-1,9.533524933E0,9.683254613E0
6.351729125E0,1.504521332E0,-6.559359741E-1,9.653724976E0,9.792254201E0
6.361669125E0,9.047186279E-1,-6.593788147E-1,9.606722717E0,9.671732915E0
6.371608125E0,5.935157776E-1,-4.016148376E-1,9.609417114E0,9.636101532E0
6.381547125E0,5.884263611E-1,-3.353027344E-2,9.719138947E0,9.736992951E0
6.391486125E0,6.719526672E-1,1.797761536E-1,9.880503387E0,9.904957700E0
6.401425125E0,9.690847778E-1,2.314187622E-1,1.020263351E1,1.025116630E1
6.411365125E0,1.438658295E0,1.402583313E-1,1.028196854E1,1.038307696E1
6.421304125E0,1.630259857E0,-9.310638428E-2,1.052790710E1,1.065379012E1
6.431243125E0,1.429078217E0,-3.674858093E-1,1.046638504E1,1.056988771E1
6.441182125E0,1.069076843E0,-5.999523926E-1,9.963131561E0,1.003826971E1
6.451121125E0,7.714956665E-1,-7.084767151E-1,9.715546417E0,9.771846653E0
6.461061125E0,5.113366699E-1,-7.487429810E-1,9.717342682E0,9.759550709E0
6.471000125E0,5.312452698E-1,-5.589376831E-1,9.835297394E0,9.865480611E0
6.480939125E0,8.963360596E-1,-2.589614868E-1,1.006297394E1,1.010613298E1
6.490878125E0,1.417851562E0,-9.819580078E-2,9.975106659E0,1.007584728E1
6.500817125E0,1.898202667E0,-1.516346741E-1,9.946067047E0,1.012671794E1
6.510756125E0,2.097588043E0,-3.287164307E-1,1.029783554E1,1.051443517E1
6.520696125E0,1.847158813E0,-5.331912231E-1,1.066861450E1,1.084046235E1
6.530635125E0,9.939331055E-1,-7.583230591E-1,1.021131546E1,1.028756144E1
6.540574125E0,4.740641785E-1,-7.984396362E-1,9.799970856E0,9.843864661E0
6.550513125E0,3.519181824E-1,-6.252497864E-1,9.465416565E0,9.492570487E0
6.560452125E0,5.266049194E-1,-4.082011414E-1,9.705517273E0,9.728360933E0
6.570392125E0,8.442443848E-1,-2.833607483E-1,9.882748718E0,9.922790138E0
6.580331125E0,1.141526184E0,-1.501377869E-1,1.027253815E1,1.033685945E1
6.590270125E0,1.698068848E0,-9.550140381E-2,1.069046906E1,1.082491048E1
6.600209125E0,2.310146027E0,-2.230361938E-1,1.050365753E1,1.075701359E1
6.610148125E0,2.721191254E0,-5.153782654E-1,1.038974442E1,1.075254787E1
6.620088125E0,2.705174561E0,-7.295828247E-1,1.047297134E1,1.084128172E1
6.630027125E0,1.898951111E0,-8.431965637E-1,1.072100555E1,1.092048332E1
6.639966125E0,8.167016602E-1,-7.083270264E-1,1.076231964E1,1.081648061E1
6.649905125E0,1.788780212E-1,-4.007167053E-1,1.056802368E1,1.057713079E1
6.659844125E0,-2.109114075E-1,-2.755769348E-1,1.042626846E1,1.043204200E1
6.669784125E0,-6.255491638E-1,-3.110531616E-1,1.043779449E1,1.046114811E1
6.679723125E0,-8.384065247E-1,-1.062789917E-1,1.015368530E1,1.018879512E1
6.689662125E0,-5.432203674E-1,1.408570862E-1,9.891580353E0,9.907486612E0
6.699601125E0,9.729766846E-3,3.258723450E-1,9.827513580E0,9.832919741E0
6.709540125E0,6.988966370E-1,4.620890808E-1,9.746232605E0,9.782179349E0
6.719479125E0,1.298849030E0,4.960684204E-1,9.713151398E0,9.812155867E0
6.729419125E0,1.462758179E0,4.778063965E-1,9.883197784E0,1.000227769E1
6.739358125E0,1.434017944E0,5.209167480E-1,9.737850037E0,9.856646745E0
6.749297125E0,1.419049072E0,5.004093933E-1,9.634115753E0,9.750912582E0
6.759236125E0,9.138496399E-1,3.246748352E-1,9.745184784E0,9.793322285E0
6.769175125E0,2.106120300E-1,2.088157654E-1,9.789342957E0,9.793834641E0
6.779115125E0,-2.046244812E-1,1.796264648E-1,9.837393036E0,9.841160429E0
6.789054125E0,-1.480421448E-1,2.830613708E-1,9.836943970E0,9.842129184E0
6.798993125E0,-7.349716187E-2,3.234773254E-1,9.903854828E0,9.909408654E0
6.808932125E0,-2.001338196E-1,2.890489197E-1,1.001088226E1,1.001705378E1
6.818871125E0,-3.234773254E-1,4.117936707E-1,1.005399261E1,1.006762033E1
6.828810375E0,-3.870950317E-1,5.649252319E-1,1.000384689E1,1.002725963E1
6.838749375E0,-6.059399414E-1,5.072950745E-1,1.000833755E1,1.003948864E1
6.848688375E0,-8.659492493E-1,5.752537537E-1,9.976154480E0,1.003017663E1
6.858627375E0,-9.852511597E-1,6.839277649E-1,9.900861053E0,9.973240528E0
6.868566375E0,-1.066981201E0,7.469467163E-1,9.810000000E0,9.896083987E0
6.878506375E0,-8.599617004E-1,8.875044250E-1,9.652677155E0,9.731463121E0
6.888445375E0,-4.546046448E-1,9.686357117E-1,9.353000336E0,9.414007425E0
6.898384375E0,-5.807922363E-2,9.406439209E-1,8.991801453E0,9.041055112E0
6.908323375E0,2.404000854E-1,9.348060608E-1,8.729696503E0,8.782895627E0
6.918262375E0,4.589456177E-1,9.761201477E-1,8.669222260E0,8.736066404E0
6.928201375E0,4.026626587E-1,9.419911194E-1,8.692873077E0,8.753029580E0
6.938141375E0,2.362088013E-1,9.093589783E-1,8.857380981E0,8.907071696E0
6.948080375E0,-1.088237000E-1,8.652008057E-1,9.170230408E0,9.211598165E0
6.958019375E0,-4.435276794E-1,8.740324402E-1,9.475445709E0,9.526002357E0
6.967958375E0,-6.024971008E-1,8.857081604E-1,9.691446533E0,9.750467558E0
6.977897375E0,-5.870791626E-1,8.387059021E-1,9.768236847E0,9.821738168E0
6.987837375E0,-3.691323853E-1,8.137078857E-1,9.801916809E0,9.842558223E0
6.997776375E0,1.586700439E-2,7.899073792E-1,9.761051788E0,9.792973882E0
7.007715375E0,3.571572876E-1,7.210505676E-1,9.635013885E0,9.668555622E0
7.017654375E0,5.219645691E-1,6.167175293E-1,9.534423065E0,9.568595023E0
7.027593375E0,6.450086975E-1,5.670208740E-1,9.517358551E0,9.556027558E0
7.037533375E0,6.471043396E-1,4.968168640E-1,9.502689056E0,9.537644905E0
7.047472375E0,4.541555786E-1,4.143383789E-1,9.618997192E0,9.638622338E0
7.057411375E0,1.821711731E-1,4.189787292E-1,9.851763153E0,9.862350974E0
7.067350375E0,-1.646575928E-1,4.517605591E-1,9.894424438E0,9.906100883E0
7.077289375E0,-4.173321533E-1,5.114863586E-1,9.957892456E0,9.979749826E0
7.087229375E0,-5.313949585E-1,6.589297485E-1,1.003138962E1,1.006704260E1
7.097168375E0,-6.282435608E-1,7.590715027E-1,9.990973663E0,1.003944392E1
7.107107375E0,-6.478527832E-1,8.086184692E-1,9.927655334E0,9.981578908E0
7.117046375E0,-6.005511475E-1,7.976911926E-1,9.806257782E0,9.856960211E0
7.126985375E0,-4.083508301E-1,8.425978088E-1,9.752968597E0,9.797811895E0
7.136924375E0,-1.366658020E-1,9.009764099E-1,9.785750427E0,9.828089716E0
7.146864375E0,-4.340972900E-2,8.180488586E-1,9.904453583E0,9.938273950E0
7.156803375E0,-4.041595459E-2,7.195536804E-1,1.000115250E1,1.002708543E1
7.166742375E0,1.930984497E-2,7.189549255E-1,1.010638367E1,1.013194255E1
7.176681375E0,5.343887329E-2,6.673123169E-1,1.018856277E1,1.021053245E1
7.186620375E0,5.358856201E-2,6.842271423E-1,1.021805145E1,1.024107485E1
7.196560375E0,1.510359192E-1,7.237449646E-1,1.015278717E1,1.017967121E1
7.206499375E0,1.968406677E-1,7.409591675E-1,1.009785141E1,1.012691314E1
7.216438375E0,1.860630798E-1,7.354206848E-1,1.002959335E1,1.005824070E1
7.226377375E0,1.302291870E-1,7.458988953E-1,9.996661835E0,1.002529664E1
7.236316375E0,1.459465027E-1,7.711962891E-1,1.003902374E1,1.006965947E1
7.246256375E0,1.986369324E-1,7.647596741E-1,1.009500732E1,1.012588203E1
7.256195375E0,2.103126526E-1,7.382647705E-1,1.009051666E1,1.011967355E1
7.266134375E0,2.415975952E-1,6.849755859E-1,1.003138962E1,1.005765075E1
7.276073375E0,3.417393494E-1,6.334826660E-1,9.868528290E0,9.894742881E0
7.286012375E0,4.688250732E-1,5.513035583E-1,9.633816376E0,9.660960124E0
7.295952375E0,5.882766724E-1,4.147874451E-1,9.438173218E0,9.465581427E0
7.305891375E0,7.493417358E-1,3.400927734E-1,9.406588898E0,9.442515069E0
7.315830375E0,1.074465637E0,4.427792358E-1,9.503287811E0,9.574080064E0
7.325769375E0,1.354832611E0,5.185217285E-1,9.821526031E0,9.928081878E0
7.335708375E0,1.497186584E0,5.532495117E-1,1.023751099E1,1.036119124E1
7.345647375E0,1.457818451E0,5.653742981E-1,1.069765411E1,1.081132213E1
7.355587375E0,1.200653229E0,5.932164001E-1,1.103744751E1,1.111839563E1
7.365526375E0,7.361691284E-1,6.225553894E-1,1.118174744E1,1.122323465E1
7.375465375E0,1.315763855E-1,6.589297485E-1,1.111363907E1,1.113393345E1
7.385404375E0,-4.137396240E-1,7.321275330E-1,1.098086517E1,1.101301917E1
7.395343375E0,-8.496331787E-1,9.280700684E-1,1.072564590E1,1.079919769E1
7.405283375E0,-1.049168243E0,1.117875366E0,1.043016037E1,1.054223148E1
7.415222375E0,-9.912387085E-1,1.325643311E0,1.021011795E1,1.034342269E1
7.425161375E0,-7.752378845E-1,1.436113586E0,1.010623398E1,1.023715689E1
7.435100375E0,-4.575984192E-1,1.435514832E0,1.005204666E1,1.016433673E1
7.445039375E0,-1.053808594E-1,1.437011719E0,1.006207581E1,1.016471728E1
7.454978375E0,2.131567383E-1,1.437760162E0,1.003513184E1,1.013984522E1
7.464918375E0,3.411405945E-1,1.311722260E0,9.891430664E0,9.983856608E0
7.474857375E0,2.661465454E-1,1.118174744E0,9.878407745E0,9.945053460E0
7.484796375E0,2.197430420E-1,1.139280853E0,9.866582336E0,9.934570694E0
7.494735375E0,-3.712280273E-2,1.166224823E0,9.884395294E0,9.953026111E0
7.504674375E0,-4.659809875E-1,1.090781708E0,9.982740784E0,1.005296258E1
7.514614375E0,-7.238946533E-1,1.128652954E0,1.005668701E1,1.014568059E1
7.524553375E0,-9.867480469E-1,1.243613892E0,1.014380585E1,1.026728028E1
7.534492375E0,-1.251547394E0,1.246757355E0,1.007150620E1,1.022526341E1
7.544431375E0,-1.377585297E0,1.156944122E0,9.894274750E0,1.005648715E1
7.554370375E0,-1.152154083E0,1.205592957E0,9.752669220E0,9.894213982E0
7.564310375E0,-6.716532898E-1,1.180894318E0,9.722581787E0,9.817037544E0
7.574249375E0,-3.442840576E-2,1.065334625E0,9.723030853E0,9.781280701E0
7.584188375E0,5.510041809E-1,7.867639160E-1,9.548493805E0,9.596683646E0
7.594127375E0,9.699829102E-1,4.373904419E-1,9.154213715E0,9.215845375E0
7.604066375E0,1.331930237E0,1.863624573E-1,8.806187439E0,8.908294244E0
7.614006375E0,1.410965881E0,8.232879639E-3,8.609496460E0,8.724352228E0
7.623945375E0,1.070873108E0,-1.353186035E-1,8.522078247E0,8.590162861E0
7.633884375E0,4.992118835E-1,-1.571731567E-1,8.517288208E0,8.533353053E0
7.643823375E0,-8.173004150E-2,-1.573228455E-1,8.937464447E0,8.939222618E0
7.653762375E0,-3.820056152E-1,1.317260742E-2,9.539662170E0,9.547316698E0
7.663701375E0,-5.495072937E-1,2.430944824E-1,1.012449600E1,1.014231100E1
7.673641375E0,-6.584806824E-1,2.688409424E-1,1.039707916E1,1.042137838E1
7.683580375E0,-7.144642639E-1,1.146615601E-1,1.055425232E1,1.057902871E1
7.693519375E0,-4.770579529E-1,-7.843688965E-2,1.045321243E1,1.046438659E1
7.703458375E0,-1.791773987E-1,-3.299139404E-1,1.000609222E1,1.001313284E1
7.713397375E0,1.152603149E-2,-5.788462830E-1,9.479636993E0,9.497300321E0
7.723337375E0,-3.397933960E-2,-7.902067566E-1,8.999285889E0,9.033976302E0
7.733276375E0,-2.957849121E-1,-7.812254333E-1,8.997639313E0,9.036333056E0
7.743215375E0,-5.171745300E-1,-4.290078735E-1,9.437275085E0,9.461166857E0
7.753154375E0,-8.255332947E-1,-1.868115234E-1,1.027268784E1,1.030749820E1
7.763093375E0,-1.288071442E0,-1.564247131E-1,1.098685272E1,1.106320611E1
7.773032375E0,-1.690434723E0,-1.197509766E-3,1.119551880E1,1.132242077E1
7.782972375E0,-1.913171539E0,2.508782959E-1,1.121093674E1,1.137577548E1
7.792911375E0,-1.769769745E0,3.996688843E-1,1.088341782E1,1.103361244E1
7.802850375E0,-1.418300629E0,4.125421143E-1,1.033196457E1,1.043701392E1
7.812789375E0,-9.656419373E-1,2.014810181E-1,9.827064514E0,9.876449560E0
7.822728375E0,-5.002597046E-1,-3.323089600E-2,9.339378662E0,9.352826196E0
7.832668250E0,-2.158511353E-1,-2.252815247E-1,9.072034607E0,9.077398052E0
7.842607250E0,-6.855743408E-2,-3.836521912E-1,8.892258453E0,8.900794882E0
7.852546250E0,7.529342651E-2,-4.583468628E-1,8.784931641E0,8.797202673E0
7.862485250E0,1.624122620E-1,-4.671784973E-1,8.809630280E0,8.823503791E0
7.872424250E0,1.787283325E-1,-6.286926270E-1,9.178014221E0,9.201257701E0
7.882364250E0,1.805245972E-1,-6.634204102E-1,9.915380859E0,9.939189774E0
7.892303250E0,1.844165039E-1,-3.137475586E-1,1.048165329E1,1.048796943E1
7.902242250E0,3.996688843E-2,-9.999206543E-2,1.050126251E1,1.050181461E1
7.912181250E0,-1.983375549E-1,-1.688488770E-1,1.008767258E1,1.009103492E1
7.922120250E0,-3.447331238E-1,-2.399510193E-1,9.531279602E0,9.540529769E0
7.932059250E0,-3.403921509E-1,-3.800596619E-1,9.046587524E0,9.060963415E0
7.941999250E0,-1.175056458E-1,-5.813909912E-1,8.798403625E0,8.818374534E0
7.951938250E0,1.257385254E-1,-6.659651184E-1,8.711434479E0,8.737757744E0
7.961877250E0,3.469784546E-1,-6.373745728E-1,8.868308258E0,8.897950986E0
7.971816250E0,5.728587341E-1,-6.090834045E-1,9.123677216E0,9.161912227E0
7.981755250E0,6.481521606E-1,-5.881269836E-1,9.444310455E0,9.484776990E0
7.991695250E0,7.737409973E-1,-6.288423157E-1,9.668244781E0,9.719520304E0
8.001634250E0,9.352551270E-1,-6.216572571E-1,9.754016418E0,9.818451822E0
8.011573250E0,9.382489014E-1,-6.735992432E-1,9.798923035E0,9.866759325E0
8.021512250E0,8.660989380E-1,-7.926017761E-1,9.837093658E0,9.906904491E0
8.031451250E0,8.604107666E-1,-9.084608459E-1,9.833351440E0,9.912638819E0
8.041391250E0,9.075627136E-1,-8.966354370E-1,9.629924469E0,9.714065599E0
8.051330250E0,9.056167603E-1,-6.718029785E-1,9.388027496E0,9.455502167E0
8.061269250E0,7.249424744E-1,-5.083428955E-1,9.311985626E0,9.353984733E0
8.071208250E0,4.083508301E-1,-4.854405212E-1,9.354347534E0,9.375831733E0
8.081147250E0,1.725910950E-1,-4.492158508E-1,9.388326874E0,9.400652321E0
8.091086250E0,5.867797852E-2,-3.995191956E-1,9.458231506E0,9.466847518E0
8.101026250E0,-1.113684082E-1,-4.487667847E-1,9.503736877E0,9.514978149E0
8.110965250E0,-3.124003601E-1,-5.209167480E-1,9.604477386E0,9.623665316E0
8.120904250E0,-4.409829712E-1,-6.815327454E-1,9.614955597E0,9.649161829E0
8.130843250E0,-3.297642517E-1,-8.749305725E-1,9.703721008E0,9.748663979E0
8.140782250E0,-2.272274780E-1,-1.051862640E0,9.939929810E0,9.998012400E0
8.150722250E0,-2.667453003E-1,-1.174308014E0,1.040546173E1,1.047491223E1
8.160661250E0,-3.948788452E-1,-1.293609924E0,1.097532669E1,1.105835213E1
8.170600250E0,-5.430706787E-1,-1.110540619E0,1.136781052E1,1.143483022E1
8.180539250E0,-7.123686218E-1,-7.454498291E-1,1.140298737E1,1.144951027E1
8.190478250E0,-1.039737854E0,-5.873785400E-1,1.116573074E1,1.122940833E1
8.200418250E0,-1.319655762E0,-4.836442566E-1,1.096350128E1,1.105322412E1
8.210357250E0,-1.568139038E0,-5.054988098E-1,1.076651093E1,1.089184771E1
8.220296250E0,-1.704655151E0,-5.553451538E-1,1.051742889E1,1.066914092E1
8.230235250E0,-1.664388885E0,-5.993536377E-1,1.025831772E1,1.040973091E1
8.240174250E0,-1.492695923E0,-6.459068298E-1,9.982591095E0,1.011422077E1
8.250113250E0,-1.198258209E0,-7.942483521E-1,9.973759460E0,1.007683139E1
8.260053250E0,-8.990304565E-1,-9.798623657E-1,1.021356079E1,1.029976748E1
8.269992250E0,-6.252497864E-1,-1.052760773E0,1.044827271E1,1.051977400E1
8.279931250E0,-4.385879517E-1,-1.017733612E0,1.061008621E1,1.066780533E1
8.289870250E0,-2.999761963E-1,-9.921368408E-1,1.056652679E1,1.061724115E1
8.299809250E0,-2.983296204E-1,-9.913883972E-1,1.031894165E1,1.037074772E1
8.309749250E0,-3.023712158E-1,-9.348060608E-1,9.922715607E0,9.971237422E0
8.319688250E0,-3.013233948E-1,-9.542655945E-1,9.563911743E0,9.616123254E0
8.329627250E0,-2.396516418E-1,-1.081800385E0,9.319769440E0,9.385405020E0
8.339566250E0,-2.424957275E-2,-1.070873108E0,9.126221924E0,9.188867387E0
8.349505250E0,2.125579834E-1,-1.048270111E0,8.871451721E0,8.935698449E0
8.359444250E0,4.802014160E-1,-1.108444977E0,8.746761017E0,8.829783234E0
8.369384250E0,7.786807251E-1,-1.082698517E0,8.905730438E0,9.005032726E0
8.379323250E0,1.020727386E0,-1.028361511E0,9.194330292E0,9.307798951E0
8.389262250E0,1.147214355E0,-9.830058289E-1,9.431586914E0,9.551818306E0
8.399201250E0,1.208586731E0,-9.735754395E-1,9.532327423E0,9.657836048E0
8.409140250E0,1.206640778E0,-9.806108093E-1,9.503138123E0,9.629497064E0
8.419080250E0,1.067130890E0,-1.001567230E0,9.502389679E0,9.614432633E0
8.429019250E0,8.563691711E-1,-9.767189026E-1,9.495054932E0,9.583497072E0
8.438958250E0,6.361770630E-1,-9.650431824E-1,9.528136139E0,9.597989783E0
8.448897250E0,4.385879517E-1,-9.545649719E-1,9.577383728E0,9.634823961E0
8.458836250E0,2.405497742E-1,-9.557624817E-1,9.739047546E0,9.788789160E0
8.468776250E0,1.246907043E-1,-9.563612366E-1,9.949060822E0,9.995698366E0
8.478715250E0,1.032852173E-2,-9.741741943E-1,1.015877472E1,1.020538220E1
8.488654250E0,-1.672023010E-1,-9.247769165E-1,1.036100418E1,1.040353673E1
8.498593250E0,-3.993695068E-1,-8.461903381E-1,1.043584854E1,1.047771296E1
8.508532250E0,-7.153623962E-1,-8.295748901E-1,1.042252625E1,1.047993279E1
8.518471250E0,-1.069376221E0,-7.653584290E-1,1.035441788E1,1.043759113E1
8.528411250E0,-1.376986542E0,-6.640191650E-1,1.031220566E1,1.042490283E1
8.538350250E0,-1.593735809E0,-5.625302124E-1,1.027403503E1,1.041211938E1
8.548289250E0,-1.756746826E0,-5.087919617E-1,1.014156052E1,1.030515785E1
8.558228250E0,-1.949396210E0,-5.864804077E-1,1.008138565E1,1.028486468E1
8.568167250E0,-2.083666992E0,-5.282514954E-1,1.012494507E1,1.035061498E1
8.578107250E0,-2.208208008E0,-4.257147217E-1,1.015503250E1,1.040106248E1
8.588046250E0,-2.370620270E0,-3.737727356E-1,1.005743546E1,1.033980437E1
8.597985250E0,-2.482587433E0,-3.662882996E-1,9.930200043E0,1.024237670E1
8.607924250E0,-2.526446228E0,-3.547622681E-1,9.756112061E0,1.008417123E1
8.617863250E0,-2.294279022E0,-3.143463135E-1,9.637408905E0,9.911719338E0
8.627802250E0,-1.854044495E0,-3.902384949E-1,9.339827728E0,9.530065533E0
8.637742250E0,-1.206790466E0,-4.989125061E-1,8.945397949E0,9.040210251E0
8.647681250E0,-5.068460083E-1,-4.843927002E-1,8.598419495E0,8.626954675E0
8.657620250E0,-1.152603149E-2,-5.004093933E-1,8.527766418E0,8.542443591E0
8.667559250E0,3.210823059E-1,-5.450166321E-1,8.747808838E0,8.770649716E0
8.677498250E0,4.802014160E-1,-5.412744141E-1,9.143286438E0,9.171873215E0
8.687438250E0,5.727090454E-1,-4.930746460E-1,9.523196411E0,9.553134990E0
8.697377250E0,5.430706787E-1,-3.733236694E-1,9.795480194E0,9.817623366E0
8.707316250E0,2.523751831E-1,-1.040336609E-1,9.962383118E0,9.966122296E0
8.717255250E0,-1.483415222E-1,1.818717957E-1,9.821226654E0,9.824030514E0
8.727194250E0,-4.399351501E-1,3.763174438E-1,9.266330566E0,9.284397661E0
8.737134250E0,-6.313870239E-1,3.752696228E-1,8.530460815E0,8.562023043E0
8.747073250E0,-6.562353516E-1,2.213896179E-1,8.054300995E0,8.084022682E0
8.757012250E0,-6.041436768E-1,6.795867920E-2,8.064928894E0,8.087810954E0
8.766951250E0,-5.412744141E-1,1.751358032E-2,8.474926300E0,8.492211756E0
8.776890250E0,-4.969665527E-1,1.197509766E-2,9.114246826E0,9.127793510E0
8.786829250E0,-5.339396667E-1,5.987548828E-4,9.714049530E0,9.728712669E0
8.796769250E0,-5.724096680E-1,-7.604187012E-2,1.030502060E1,1.032118621E1
8.806708250E0,-6.331832886E-1,-1.586700439E-2,1.074884766E1,1.076749269E1
8.816647250E0,-7.424560547E-1,8.517288208E-2,1.093670700E1,1.096221034E1
8.826586250E0,-1.071471863E0,-1.841171265E-1,1.075214081E1,1.080696456E1
8.836525333E0,-1.318907318E0,-2.998265076E-1,1.052670959E1,1.061324773E1
8.846465333E0,-1.418150940E0,-2.392025757E-1,1.018586838E1,1.028689869E1
8.856404333E0,-1.376238098E0,-1.160087585E-1,9.698182526E0,9.796031525E0
8.866343333E0,-1.447190552E0,-1.672023010E-1,9.289232941E0,9.402774363E0
8.876282333E0,-1.386566620E0,-2.815644836E-1,9.015302582E0,9.125652097E0
8.886221333E0,-1.122815094E0,-6.252497864E-1,9.065597992E0,9.156239293E0
8.896160333E0,-8.455915833E-1,-1.020128632E0,9.669891357E0,9.760250325E0
8.906100333E0,-5.481600952E-1,-1.144819336E0,1.034139496E1,1.041899902E1
8.916039333E0,-3.035687256E-1,-1.059197388E0,1.094239517E1,1.099773000E1
8.925978333E0,-3.667373657E-1,-9.014254761E-1,1.140373581E1,1.144518478E1
8.935917333E0,-2.167492676E-1,-5.743556213E-1,1.115929413E1,1.117616706E1
8.945856333E0,2.820135498E-1,-2.966830444E-1,1.055006104E1,1.055799888E1
8.955796333E0,6.418652344E-1,-3.354524231E-1,1.017269577E1,1.019844393E1
8.965735333E0,8.071215820E-1,-4.420307922E-1,9.984387360E0,1.002670571E1
8.975674333E0,8.948391724E-1,-4.722679138E-1,9.968370667E0,1.001959020E1
8.985613333E0,7.393125916E-1,-3.430865479E-1,9.935139771E0,9.968515122E0
8.995552333E0,5.751040649E-1,-1.564247131E-1,9.823471985E0,9.841535206E0
9.005491333E0,3.270698547E-1,-1.170565796E-1,9.890532532E0,9.896631280E0
9.015431333E0,1.002914429E-1,-7.259902954E-2,1.014156052E1,1.014231624E1
9.025370333E0,2.077679443E-1,2.514770508E-2,1.048479675E1,1.048688528E1
9.035309333E0,5.236111450E-1,1.441502380E-1,1.070543793E1,1.071920469E1
9.045248333E0,6.623725891E-1,1.535806274E-1,1.102666992E1,1.104761395E1
9.055187333E0,4.715194702E-1,2.442919922E-1,1.124446701E1,1.125699994E1
9.065127333E0,6.780899048E-2,5.020559692E-1,1.112321915E1,1.113475022E1
9.075066333E0,-1.845661926E-1,8.038284302E-1,1.066113007E1,1.069298364E1
9.085005333E0,-5.667214966E-1,1.016985168E0,1.014081207E1,1.020742385E1
9.094944333E0,-9.422904968E-1,1.110989685E0,9.739346924E0,9.847694551E0
9.104883333E0,-9.743238831E-1,1.186283112E0,9.423204346E0,9.547426606E0
9.114822333E0,-7.833210754E-1,1.203497314E0,9.345515900E0,9.455192495E0
9.124762333E0,-7.286846924E-1,1.187031555E0,9.573641510E0,9.674432131E0
9.134701333E0,-6.050418091E-1,1.162781982E0,9.754914551E0,9.842585810E0
9.144640333E0,-1.574725342E-1,1.249152374E0,9.725725250E0,9.806880793E0
9.154579333E0,2.821632385E-1,1.334624634E0,9.548643494E0,9.645591303E0
9.164518333E0,4.242178345E-1,1.268162842E0,9.602082367E0,9.694750309E0
9.174458333E0,4.105961609E-1,1.121168518E0,9.744286652E0,9.817165090E0
9.184397333E0,3.788621521E-1,1.011596375E0,9.867031403E0,9.925984710E0
9.194336333E0,3.462300110E-1,1.032702484E0,9.908046112E0,9.967734316E0
9.204275333E0,3.541635132E-1,1.142723694E0,9.804461517E0,9.877181525E0
9.214214333E0,2.894979858E-1,1.215023346E0,9.798174591E0,9.877465066E0
9.224153333E0,3.221301270E-1,1.222507782E0,9.838141479E0,9.919038303E0
9.234093333E0,4.375401306E-1,1.237776031E0,9.973310394E0,1.005934645E1
9.244032333E0,5.911207581E-1,1.282383270E0,1.010488678E1,1.020307147E1
9.253971333E0,6.897656250E-1,1.342258759E0,1.019859192E1,1.030964172E1
9.263910333E0,6.279441833E-1,1.289119263E0,1.028271698E1,1.038221609E1
9.273849333E0,5.351371765E-1,1.180445251E0,1.025741959E1,1.033897864E1
9.283789333E0,5.165757751E-1,1.144969025E0,1.010803024E1,1.018577832E1
9.293728333E0,3.882925415E-1,1.143172760E0,9.962682495E0,1.003556962E1
9.303667333E0,2.888992310E-1,1.143771515E0,9.797426147E0,9.868193105E0
9.313606333E0,3.050656128E-1,1.166973267E0,9.591155090E0,9.666703037E0
9.323545333E0,2.805166626E-1,1.118623810E0,9.358538818E0,9.429329650E0
9.333485333E0,1.872605896E-1,1.086291046E0,9.275162201E0,9.340435141E0
9.343424333E0,2.484832764E-2,1.060993652E0,9.283395081E0,9.343861578E0
9.353363333E0,-1.172062683E-1,9.934840393E-1,9.327553253E0,9.381044587E0
9.363302333E0,-2.121089172E-1,9.050180054E-1,9.475894775E0,9.521377504E0
9.373241333E0,-2.697390747E-1,9.003776550E-1,9.497150574E0,9.543547983E0
9.383180333E0,-3.258723450E-1,8.755293274E-1,9.508077850E0,9.553862507E0
9.393120333E0,-4.122427368E-1,7.864645386E-1,9.632020111E0,9.672863173E0
9.403059333E0,-5.043013000E-1,7.430548096E-1,9.722881165E0,9.764264867E0
9.412998333E0,-5.316943359E-1,7.566764832E-1,9.757010193E0,9.800740078E0
9.422937333E0,-5.502557373E-1,7.756869507E-1,9.758207703E0,9.804442319E0
9.432876333E0,-5.510041809E-1,8.202941895E-1,9.662107544E0,9.712507933E0
9.442816333E0,-5.191204834E-1,8.270301819E-1,9.407487030E0,9.458027131E0
9.452755333E0,-5.346881104E-1,7.908055115E-1,9.148974609E0,9.198641266E0
9.462694333E0,-4.950205994E-1,7.414082336E-1,9.006920013E0,9.050930322E0
9.472633333E0,-3.176394653E-1,7.206015015E-1,8.904682617E0,8.939436999E0
9.482572333E0,-1.514849854E-1,6.902146912E-1,8.965306549E0,8.993112116E0
9.492511333E0,-7.289840698E-2,6.643185425E-1,9.243278503E0,9.267406908E0
9.502451333E0,-1.823208618E-1,6.276448059E-1,9.729168091E0,9.751096894E0
9.512390333E0,-2.851570129E-1,5.385800171E-1,1.020083725E1,1.021902459E1
9.522329333E0,-1.948947144E-1,4.978646851E-1,1.037761963E1,1.039138308E1
9.532268333E0,-7.694000244E-2,4.502636719E-1,1.034962784E1,1.035970335E1
9.542207333E0,6.691085815E-2,3.812571716E-1,1.015084122E1,1.015821891E1
9.552147333E0,2.315684509E-1,2.847079468E-1,9.858349457E0,9.865177980E0
9.562086333E0,4.077520752E-1,1.880090332E-1,9.692793732E0,9.703188109E0
9.572025333E0,5.239105225E-1,1.585203552E-1,9.802365875E0,9.817636563E0
9.581964333E0,5.644761658E-1,1.731898499E-1,1.010623398E1,1.012346745E1
9.591903333E0,5.394781494E-1,1.811233521E-1,1.034319122E1,1.035883425E1
9.601842333E0,4.260140991E-1,1.029858398E-1,1.043554916E1,1.044474894E1
9.611782333E0,3.523672485E-1,3.083587646E-2,1.037133270E1,1.037736265E1
9.621721333E0,3.845503235E-1,8.382568359E-3,1.019859192E1,1.020584276E1
9.631660333E0,4.622387695E-1,-1.227447510E-2,1.006132736E1,1.007194736E1
9.641599333E0,4.105961609E-1,-2.694396973E-2,9.961634674E0,9.970129416E0
9.651538333E0,2.832110596E-1,-4.116439819E-2,9.904902649E0,9.909036255E0
9.661478333E0,4.730163574E-2,-6.466552734E-2,1.007375153E1,1.007407012E1
9.671417333E0,-1.507365417E-1,-5.748046875E-2,1.036684204E1,1.036809719E1
9.681356333E0,-2.742297363E-1,-3.547622681E-2,1.057505905E1,1.057867357E1
9.691295333E0,-2.624043274E-1,-5.777984619E-2,1.065304688E1,1.065643478E1
9.701234333E0,-1.477427673E-1,-3.158432007E-2,1.057625656E1,1.057733560E1
9.711173333E0,-1.152603149E-2,-2.215393066E-2,1.043001068E1,1.043004058E1
9.721113333E0,1.152603149E-1,-1.721420288E-2,1.032582733E1,1.032648495E1
9.731052333E0,1.817221069E-1,-2.574645996E-2,1.029469208E1,1.029632802E1
9.740991333E0,2.091151428E-1,-5.987548828E-4,1.027583130E1,1.027795886E1
9.750930333E0,1.919009399E-1,-1.841171265E-2,1.026864624E1,1.027045571E1
9.760869333E0,1.190025330E-1,-6.436614990E-3,1.026280838E1,1.026350032E1
9.770809333E0,1.498384094E-1,4.580474854E-2,1.029663803E1,1.029783008E1
9.780748333E0,2.206411743E-1,1.007405090E-1,1.029888336E1,1.030173916E1
9.790687333E0,3.330574036E-1,1.559756470E-1,1.039453445E1,1.040103851E1
9.800626333E0,5.026547241E-1,2.384541321E-1,1.053090088E1,1.054558654E1
9.810565333E0,7.424560547E-1,4.480183411E-1,1.077100159E1,1.080585196E1
9.820504333E0,8.424481201E-1,6.562353516E-1,1.113549362E1,1.118658044E1
9.830444333E0,5.204676819E-1,6.801855469E-1,1.127754822E1,1.131002355E1
9.840383708E0,3.876937866E-2,5.590873718E-1,1.125599304E1,1.126993616E1
9.850322708E0,-2.314187622E-1,5.086422729E-1,1.128787674E1,1.130170044E1
9.860261708E0,-3.460803223E-1,6.571334839E-1,1.132350266E1,1.134783276E1
9.870200708E0,-3.282673645E-1,9.177415466E-1,1.125240051E1,1.129453524E1
9.880140708E0,-2.661465454E-1,1.083596649E0,1.106349335E1,1.111961783E1
9.890079708E0,-5.773493958E-1,1.021176453E0,1.063328796E1,1.069780102E1
9.900018708E0,-1.000070343E0,1.083896027E0,1.041459274E1,1.051849387E1
9.909957708E0,-1.436562653E0,1.156495056E0,1.077040283E1,1.092715746E1
9.919896708E0,-1.624122620E0,1.673968964E0,1.022508682E1,1.048772363E1
9.929835708E0,-1.442849579E0,2.070793762E0,1.010428802E1,1.041473179E1
9.939775708E0,-1.178349609E0,2.432441711E0,1.001237915E1,1.037077706E1
9.949714708E0,-9.626481628E-1,2.876568146E0,9.495653687E0,9.968388772E0
9.959653708E0,-9.717791748E-1,3.094514923E0,8.875643005E0,9.449731008E0
9.969592708E0,-1.007405090E0,3.355122986E0,8.239915009E0,8.953653702E0
9.979531708E0,-1.193019104E0,3.558549957E0,7.809410248E0,8.664494261E0
9.989471708E0,-1.557810516E0,3.787723389E0,7.505093079E0,8.549856384E0
9.999410708E0,-1.831142120E0,4.119732971E0,7.331603851E0,8.606840085E0
1.000934971E1,-1.807341614E0,4.495900726E0,7.355703735E0,8.808290668E0
1.001928871E1,-1.705403595E0,4.917124786E0,7.614066467E0,9.222826343E0
1.002922771E1,-1.625320129E0,5.356910248E0,7.918383636E0,9.697368320E0
1.003916671E1,-1.718127136E0,5.353467407E0,8.281229095E0,1.000951195E1
1.004910671E1,-1.638343048E0,5.351671143E0,8.545579376E0,1.021525716E1
1.005904571E1,-1.363065491E0,5.450316010E0,8.738677826E0,1.038885856E1
1.006898471E1,-1.232237549E0,5.450166321E0,9.188043365E0,1.075373717E1
1.007892371E1,-1.200353851E0,5.491330719E0,9.320517883E0,1.088428298E1
1.008886271E1,-9.316625977E-1,5.471721497E0,9.359886017E0,1.088187473E1
1.009880271E1,-7.442523193E-1,5.564977570E0,9.657766571E0,1.117118355E1
1.010874171E1,-5.891748047E-1,5.702242126E0,9.784103851E0,1.133981395E1
1.011868071E1,-4.370910645E-1,5.736969910E0,9.725725250E0,1.130015947E1
1.012861971E1,-4.204756165E-1,5.862858124E0,9.718839569E0,1.135806972E1
1.013855871E1,-3.023712158E-1,6.241271210E0,9.202862549E0,1.112373920E1
1.014849771E1,-1.525328064E-1,6.454577637E0,8.027656403E0,1.030184964E1
1.015843771E1,-4.460723877E-2,6.535259857E0,6.927593994E0,9.523821174E0
1.016837671E1,1.179547119E-1,6.707102509E0,5.883365479E0,8.922618827E0
1.017831571E1,3.570075989E-1,6.818919983E0,5.108726349E0,8.527849029E0
1.018825471E1,6.246510315E-1,6.936275940E0,4.810845795E0,8.464416701E0
1.019819371E1,8.484356689E-1,7.005581818E0,4.763095093E0,8.513817860E0
1.020813371E1,1.194366302E0,7.107669525E0,4.852010193E0,8.688353115E0
1.021807271E1,1.451830902E0,7.222181396E0,5.100044403E0,8.959808592E0
1.022801171E1,1.472338257E0,7.375612335E0,5.411846008E0,9.265825084E0
1.023795071E1,1.255289612E0,7.547604675E0,5.650898895E0,9.511821417E0
1.024788971E1,9.535171509E-1,7.619455261E0,5.491031342E0,9.440165180E0
1.025782871E1,7.683522034E-1,7.661817169E0,5.163213043E0,9.271061232E0
1.026776871E1,7.866142273E-1,7.774083710E0,4.708159332E0,9.122604001E0
1.027770771E1,8.855584717E-1,7.912994843E0,4.511019287E0,9.151447765E0
1.028764671E1,9.210346985E-1,8.080646210E0,4.570894775E0,9.329428017E0
1.029758571E1,9.764195251E-1,8.277037811E0,4.521347809E0,9.481842438E0
1.030752471E1,9.921368408E-1,8.380921783E0,4.035757599E0,9.354759476E0
1.031746471E1,8.220904541E-1,8.343948669E0,3.312162323E0,9.014861694E0
1.032740371E1,6.167175293E-1,8.400531006E0,2.745590515E0,8.859318764E0
1.033734271E1,3.918850708E-1,8.527766418E0,2.475552063E0,8.888460610E0
1.034728171E1,4.116439819E-2,8.662935333E0,2.922073517E0,9.142573857E0
1.035722071E1,-2.541714478E-1,8.860225067E0,3.637136536E0,9.581072672E0
1.036715971E1,-2.459385681E-1,9.037755890E0,4.109554138E0,9.931261376E0
1.037709971E1,-1.445993042E-1,9.167386322E0,3.778742065E0,9.916691612E0
1.038703871E1,-1.070274353E-1,9.131011963E0,2.661465454E0,9.511584132E0
1.039697771E1,-4.385879517E-2,9.123976593E0,1.385967865E0,9.228747444E0
1.040691671E1,-1.489402771E-1,9.175469513E0,5.150788879E-1,9.191122361E0
1.041685571E1,-2.926414490E-1,9.176367645E0,4.171824646E-1,9.190506155E0
1.042679471E1,-4.638853455E-1,9.243727570E0,8.922944641E-1,9.298272872E0
1.043673471E1,-6.759942627E-1,9.312285004E0,1.813927917E0,9.511359247E0
1.044667371E1,-8.446934509E-1,9.406289520E0,2.620151367E0,9.800866429E0
1.045661271E1,-8.794212341E-1,9.445957031E0,2.861599274E0,9.908997747E0
1.046655171E1,-9.511221313E-1,9.438322906E0,2.749632111E0,9.876590978E0
1.047649071E1,-8.987310791E-1,9.505084076E0,2.131118317E0,9.782433548E0
1.048643071E1,-7.541317749E-1,9.513766022E0,1.441352692E0,9.651836936E0
1.049636971E1,-5.641767883E-1,9.515861664E0,9.389973450E-1,9.578707359E0
1.050630871E1,-3.974235535E-1,9.594148865E0,5.662724304E-1,9.619059330E0
1.051624771E1,-2.465373230E-1,9.630523224E0,7.743397522E-1,9.664748329E0
1.052618671E1,-2.697390747E-1,9.653874664E0,1.276395721E0,9.741624158E0
1.053612671E1,-3.326083374E-1,9.676777039E0,1.608554993E0,9.815196958E0
1.054606571E1,-3.829037476E-1,9.641450500E0,1.722917175E0,9.801664482E0
1.055600471E1,-4.800517273E-1,9.626182251E0,1.907633057E0,9.825115687E0
1.056594371E1,-5.180726624E-1,9.672136688E0,2.185605011E0,9.929526508E0
1.057588271E1,-4.659809875E-1,9.718839569E0,2.102677460E0,9.954608649E0
1.058582171E1,-3.333567810E-1,9.689799957E0,1.928290100E0,9.885426276E0
1.059576171E1,-2.490820312E-1,9.702373810E0,1.902543640E0,9.890286735E0
1.060570071E1,-2.444416809E-1,9.658814392E0,1.768123169E0,9.822357494E0
1.061563971E1,-3.176394653E-1,9.547146606E0,1.509161682E0,9.670908548E0
1.062557871E1,-3.751199341E-1,9.473799133E0,1.216969299E0,9.559006186E0
1.063551771E1,-3.965254211E-1,9.445058899E0,1.053209839E0,9.511867376E0
1.064545771E1,-5.742059326E-1,9.386979675E0,1.168021088E0,9.476780737E0
1.065539671E1,-6.526428223E-1,9.491163025E0,1.621278534E0,9.650733770E0
1.066533571E1,-5.783972168E-1,9.653724976E0,2.210752716E0,9.920502851E0
1.067527471E1,-4.182302856E-1,9.729467468E0,2.565514984E0,1.007071601E1
1.068521371E1,-1.923500061E-1,9.798923035E0,2.663261719E0,1.015622243E1
1.069515271E1,1.410067749E-1,9.833351440E0,2.371219025E0,1.011619311E1
1.070509271E1,3.980223083E-1,9.781259766E0,1.878294067E0,9.967921196E0
1.071503171E1,5.885760498E-1,9.753866730E0,1.493893433E0,9.885143172E0
1.072497071E1,6.195616150E-1,9.658065948E0,1.069825287E0,9.736869138E0
1.073490971E1,4.813989258E-1,9.473350067E0,8.406518555E-1,9.522751806E0
1.074484871E1,4.326004028E-1,9.406139832E0,8.996292114E-1,9.458960955E0
1.075478771E1,3.230282593E-1,9.364825745E0,1.412013702E0,9.476185476E0
1.076472771E1,3.742218018E-2,9.349258118E0,2.129771118E0,9.588845227E0
1.077466671E1,-1.639091492E-1,9.386081543E0,2.435136108E0,9.698210186E0
1.078460571E1,-2.082170105E-1,9.410331116E0,2.245330811E0,9.676734805E0
1.079454471E1,-1.624122620E-1,9.449100494E0,1.803898773E0,9.621118889E0
1.080448371E1,-9.639953613E-2,9.459429016E0,1.212029572E0,9.537248338E0
1.081442371E1,-5.987548828E-4,9.319020996E0,7.926017761E-1,9.352666479E0
1.082436271E1,2.588117981E-1,9.339079285E0,4.649331665E-1,9.354226226E0
1.083430200E1,4.224215698E-1,9.283544769E0,2.764750671E-1,9.297262066E0
1.084424100E1,5.370831299E-1,9.004674683E0,-9.550140381E-2,9.021183123E0
1.085418000E1,4.085005188E-1,9.084608459E0,-1.231938171E-1,9.094622601E0
1.086411900E1,1.471440125E-1,9.036708069E0,4.998106384E-1,9.051715570E0
1.087405900E1,-2.130070496E-1,8.830736389E0,8.053253174E-1,8.869939461E0
1.088399800E1,-2.917433167E-1,8.662486267E0,1.236728210E0,8.755185844E0
1.089393700E1,-8.352630615E-2,8.780890045E0,1.740730133E0,8.952158847E0
1.090387600E1,3.353027344E-2,8.844956818E0,2.341880035E0,9.149797128E0
1.091381500E1,2.859054565E-2,8.779991913E0,2.875520325E0,9.238922694E0
1.092375500E1,9.759704590E-2,8.676107941E0,3.070115662E0,9.203802712E0
1.093369400E1,8.442443848E-2,8.618328094E0,3.378324738E0,9.257201773E0
1.094363300E1,-1.736389160E-2,8.582851868E0,3.504512329E0,9.270774205E0
1.095357200E1,7.274871826E-2,8.525970154E0,3.117267609E0,9.078260670E0
1.096351100E1,2.591111755E-1,8.312514038E0,2.799029388E0,8.774941239E0
1.097345000E1,3.942800903E-1,8.128097534E0,3.012335815E0,8.677303347E0
1.098339000E1,2.511776733E-1,8.012238464E0,3.538042603E0,8.762237208E0
1.099332900E1,-3.267704773E-1,7.826923828E0,4.713099060E0,9.142254553E0
1.100326800E1,-6.803352356E-1,7.734865265E0,5.709277496E0,9.637782226E0
1.101320700E1,-7.255412292E-1,7.557184753E0,6.384822693E0,9.919849409E0
1.102314600E1,-3.143463135E-1,7.474855957E0,6.490053864E0,9.904195290E0
1.103308600E1,2.532733154E-1,7.267088013E0,6.107150116E0,9.495893749E0
1.104302500E1,9.572593689E-1,7.124135284E0,5.834866333E0,9.258256541E0
1.105296400E1,1.474733276E0,7.005731506E0,5.810018005E0,9.220163849E0
1.106290300E1,1.605411530E0,6.776408386E0,5.754483490E0,9.033888257E0
1.107284200E1,1.350192261E0,6.431076508E0,6.177054749E0,9.018745453E0
1.108278100E1,1.018182678E0,6.230044556E0,6.923402710E0,9.369293261E0
1.109272100E1,7.161108398E-1,6.035149841E0,7.385641479E0,9.564703258E0
1.110266000E1,6.105802917E-1,5.955665131E0,7.716752930E0,9.766833224E0
1.111259900E1,7.147636414E-1,5.804778900E0,7.907456360E0,9.835355165E0
1.112253800E1,8.773255920E-1,5.476661224E0,7.838000793E0,9.601967236E0
1.113247700E1,1.234183502E0,5.308860168E0,7.841593323E0,9.549753455E0
1.114241600E1,1.591640167E0,5.313201141E0,7.952213287E0,9.695417524E0
1.115235600E1,1.735491028E0,5.197342072E0,7.748936005E0,9.490537546E0
1.116229500E1,1.857936401E0,5.004093933E0,7.491022339E0,9.198276982E0
1.117223400E1,1.871558075E0,4.802612915E0,7.232060852E0,8.880907871E0
1.118217300E1,1.508862305E0,4.468807068E0,7.138056335E0,8.555626822E0
1.119211200E1,8.544232178E-1,4.259242859E0,7.628586273E0,8.778753744E0
1.120205200E1,2.360591125E-1,4.160448303E0,8.541088715E0,9.503433612E0
1.121199100E1,-3.755690002E-1,3.974983978E0,9.199719086E0,1.002877764E1
1.122193000E1,-6.610253906E-1,3.784430237E0,9.482780457E0,1.023142180E1
1.123186900E1,-6.387217712E-1,3.550616455E0,9.890831909E0,1.052821915E1
1.124180800E1,-4.808001709E-1,3.356320496E0,1.013347733E1,1.068566417E1
1.125174700E1,-2.354603577E-1,3.092119904E0,9.898316345E0,1.037271968E1
1.126168700E1,5.119354248E-2,2.865491180E0,9.664203186E0,1.008020256E1
1.127162600E1,2.469863892E-1,2.800975342E0,9.501341858E0,9.908681156E0
1.128156500E1,2.001338196E-1,2.981350250E0,9.519603882E0,9.977542830E0
1.129150400E1,-2.380050659E-2,3.149600372E0,9.733359375E0,1.023029001E1
1.130144300E1,-2.538720703E-1,3.158432007E0,9.740993500E0,1.024339290E1
1.131138300E1,-6.174659729E-1,3.119363251E0,9.884544983E0,1.038344456E1
1.132132200E1,-1.083746338E0,3.149300995E0,1.031639694E1,1.084069411E1
1.133126100E1,-1.601369934E0,2.989882507E0,1.013153137E1,1.068418041E1
1.134120000E1,-2.107617188E0,2.580932922E0,9.941576385E0,1.048514215E1
1.135113900E1,-2.507136383E0,2.288740540E0,1.021266266E1,1.076208830E1
1.136107800E1,-2.587219849E0,2.178419952E0,1.045740372E1,1.099074668E1
1.137101800E1,-2.388433228E0,2.076182556E0,1.054018158E1,1.100502499E1
1.138095700E1,-2.096689911E0,2.075733490E0,1.067520081E1,1.107540926E1
1.139089600E1,-1.728904724E0,2.097887421E0,1.078432388E1,1.112168534E1
1.140083500E1,-1.448687439E0,2.118394775E0,1.072819061E1,1.103088236E1
1.141077400E1,-1.405876465E0,2.056872711E0,1.049317932E1,1.078489806E1
1.142071300E1,-1.406475220E0,1.952839050E0,1.021086639E1,1.049064085E1
1.143065300E1,-1.257684631E0,1.859133911E0,1.007255402E1,1.031961695E1
1.144059200E1,-1.228944397E0,1.754950562E0,1.014889526E1,1.037257108E1
1.145053100E1,-1.224004669E0,1.762434998E0,1.034423904E1,1.056445199E1
1.146047000E1,-1.250349884E0,1.691781921E0,1.050320847E1,1.071181072E1
1.147040900E1,-1.186732178E0,1.355730743E0,1.053389465E1,1.068687399E1
1.148034900E1,-9.795629883E-1,1.432670746E0,1.081755478E1,1.095589250E1
1.149028800E1,-1.472487946E0,1.575623474E0,1.119402191E1,1.139986564E1
1.150022700E1,-1.253792725E0,1.636696472E0,1.115315689E1,1.134211974E1
1.151016600E1,-1.100361786E0,1.402583313E0,1.115615067E1,1.129768709E1
1.152010500E1,-1.262923737E0,1.053060150E0,1.113145203E1,1.125225028E1
1.153004400E1,-1.258283386E0,7.933502197E-1,1.104777603E1,1.114746773E1
1.153998400E1,-1.099164276E0,7.508386230E-1,1.091739716E1,1.099824902E1
1.154992300E1,-1.013542328E0,7.691006470E-1,1.069974976E1,1.077513010E1
1.155986200E1,-9.560618591E-1,8.337661743E-1,1.044976959E1,1.052648587E1
1.156980100E1,-9.541159058E-1,9.267228699E-1,1.015892441E1,1.024562822E1
1.157974000E1,-9.735754395E-1,1.006956024E0,9.889933777E0,9.988623513E0
1.158967900E1,-9.285191345E-1,1.098565521E0,9.691596222E0,9.797756443E0
1.159961900E1,-8.776249695E-1,1.147214355E0,9.500144348E0,9.609321984E0
1.160955800E1,-8.499325562E-1,1.111139374E0,9.427395630E0,9.530624556E0
1.161949700E1,-7.409591675E-1,1.067130890E0,9.573192444E0,9.660942107E0
1.162943600E1,-6.616241455E-1,1.107397156E0,9.804910583E0,9.889405772E0
1.163937500E1,-5.798941040E-1,1.124910736E0,1.000998413E1,1.008967213E1
1.164931500E1,-5.370831299E-1,1.071621552E0,1.004995102E1,1.012118306E1
1.165925400E1,-5.766009521E-1,9.711804199E-1,9.941576385E0,1.000552853E1
1.166919300E1,-7.226971436E-1,8.381071472E-1,9.777068481E0,9.839501148E0
1.167913200E1,-8.271798706E-1,6.788383484E-1,9.725874939E0,9.784563934E0
1.168907100E1,-9.503736877E-1,5.617817688E-1,9.814191284E0,9.876090292E0
1.169901000E1,-9.270222473E-1,6.382727051E-1,9.893675995E0,9.957488990E0
1.170895000E1,-8.373587036E-1,7.373666382E-1,9.884694672E0,9.947465401E0
1.171888900E1,-7.705975342E-1,8.141569519E-1,9.848769379E0,9.912362502E0
1.172882800E1,-7.264393616E-1,8.705895996E-1,9.814640350E0,9.879919312E0
1.173876700E1,-7.200027466E-1,8.810678101E-1,9.787097626E0,9.853018034E0
1.174870600E1,-6.643185425E-1,8.396040344E-1,9.734407196E0,9.793106633E0
1.175864600E1,-6.593788147E-1,7.593708801E-1,9.712402954E0,9.764332834E0
1.176858500E1,-6.662644958E-1,6.920109558E-1,9.704619141E0,9.752046975E0
1.177852400E1,-7.240443420E-1,6.304888916E-1,9.683063965E0,9.730543880E0
1.178846300E1,-8.253836060E-1,5.616320801E-1,9.598040771E0,9.649822555E0
1.179840200E1,-8.095166016E-1,5.679190063E-1,9.438771973E0,9.490430205E0
1.180834100E1,-7.406597900E-1,6.438111877E-1,9.250463562E0,9.302373132E0
1.181828100E1,-7.348219299E-1,6.912625122E-1,9.254205780E0,9.309034953E0
1.182822000E1,-7.450007629E-1,7.086264038E-1,9.266629944E0,9.323497629E0
1.183815850E1,-7.470964050E-1,7.393125916E-1,9.231602783E0,9.291244593E0
1.184809750E1,-8.137078857E-1,7.623646545E-1,9.193282471E0,9.260656725E0
1.185803650E1,-8.304730225E-1,7.185058594E-1,9.136999512E0,9.202754815E0
1.186797650E1,-7.640112305E-1,6.927593994E-1,9.001082153E0,9.059972885E0
1.187791550E1,-7.258406067E-1,6.490502930E-1,8.867709503E0,8.921007942E0
1.188785450E1,-6.815327454E-1,5.725593567E-1,8.850195923E0,8.894845641E0
1.189779350E1,-5.845344543E-1,5.028044128E-1,8.908125458E0,8.941431204E0
1.190773250E1,-5.206173706E-1,4.794529724E-1,9.057065735E0,9.084677062E0
1.191767150E1,-5.533992004E-1,4.144880676E-1,9.241931305E0,9.267758374E0
1.192761150E1,-5.748046875E-1,3.465293884E-1,9.451196136E0,9.474998230E0
1.193755050E1,-5.541476440E-1,2.630030823E-1,9.599088593E0,9.618666854E0
1.194748950E1,-5.417234802E-1,1.663041687E-1,9.590556335E0,9.607283291E0
1.195742850E1,-5.779481506E-1,5.403762817E-2,9.551936646E0,9.569557869E0
1.196736750E1,-6.222560120E-1,-8.143066406E-2,9.640702057E0,9.661106026E0
1.197730650E1,-6.194119263E-1,-2.267784119E-1,9.721234589E0,9.743587712E0
1.198724650E1,-5.373825073E-1,-3.342549133E-1,9.652677155E0,9.673400775E0
1.199718550E1,-4.379891968E-1,-4.567002869E-1,9.442065125E0,9.463244872E0
1.200712450E1,-3.992198181E-1,-5.498066711E-1,9.284143524E0,9.308973349E0
1.201706350E1,-2.737806702E-1,-5.929170227E-1,9.275910645E0,9.298872229E0
1.202700250E1,-1.362167358E-2,-6.134243774E-1,9.087003479E0,9.107694947E0
1.203694150E1,1.733395386E-1,-7.006929016E-1,8.733588409E0,8.763366000E0
1.204688150E1,3.317102051E-1,-8.268804932E-1,8.556955719E0,8.603211853E0
1.205682050E1,4.749623108E-1,-9.879455566E-1,8.554560699E0,8.624507776E0
1.206675950E1,6.068380737E-1,-1.114133148E0,8.678053894E0,8.770300138E0
1.207669850E1,7.559280396E-1,-1.238524475E0,8.916657715E0,9.033944591E0
1.208663750E1,8.878038025E-1,-1.362915802E0,9.082363129E0,9.226865940E0
1.209657750E1,1.001267853E0,-1.517095184E0,9.347761230E0,9.522854358E0
1.210651650E1,1.086141357E0,-1.720971222E0,9.704469452E0,9.915552044E0
1.211645550E1,1.084195404E0,-2.070793762E0,9.924661560E0,1.019620388E1
1.212639450E1,1.118324432E0,-2.550995178E0,1.005998016E1,1.043845903E1
1.213633350E1,1.250349884E0,-3.052302704E0,1.024230103E1,1.076032792E1
1.214627250E1,1.597927094E0,-3.414250031E0,1.038764877E1,1.105050774E1
1.215621250E1,2.013612671E0,-3.596870270E0,1.064286804E1,1.141327087E1
1.216615150E1,2.286046143E0,-3.630550232E0,1.093086914E1,1.174269143E1
1.217609050E1,2.316283264E0,-3.617976379E0,1.106259521E1,1.186743166E1
1.218602950E1,1.967957611E0,-3.663930817E0,1.102143082E1,1.178003325E1
1.219596850E1,1.176403656E0,-3.945644989E0,1.089284821E1,1.164500674E1
1.220590750E1,3.155438232E-1,-4.274810486E0,1.072085587E1,1.154600897E1
1.221584750E1,1.314865723E0,-4.981490936E0,9.720635834E0,1.100158556E1
1.222578650E1,1.574276276E0,-3.736080780E0,8.899892578E0,9.779812539E0
1.223572550E1,2.311343536E0,-3.606749725E0,6.942562866E0,8.157826406E0
1.224566450E1,2.116748199E0,-3.832779694E0,9.428443451E0,1.039549754E1
1.225560350E1,1.375339966E0,-3.289858704E0,9.720037079E0,1.035344634E1
1.226554350E1,2.026485901E0,-3.500770111E0,7.448959808E0,8.476381227E0
1.227548250E1,2.815644836E0,-3.884571991E0,8.297545166E0,9.584728018E0
1.228542150E1,2.984942780E0,-3.788920898E0,8.353828125E0,9.646359381E0
1.229536050E1,2.229164429E0,-3.657344513E0,8.133636017E0,9.192463097E0
1.230529950E1,1.224453735E0,-3.755839691E0,8.731941833E0,9.583967181E0
1.231523850E1,6.719526672E-1,-3.677103424E0,9.051377563E0,9.792856875E0
1.232517850E1,6.122268677E-1,-3.551215210E0,9.003926239E0,9.698280204E0
1.233511750E1,6.774911499E-1,-3.357518005E0,8.824599152E0,9.466016670E0
1.234505650E1,4.116439819E-1,-3.390449524E0,9.476942596E0,1.007358128E1
1.235499550E1,-1.022373962E-1,-3.955524445E0,9.204359436E0,1.001882522E1
1.236493450E1,-3.626957703E-1,-4.272116089E0,8.810079346E0,9.797960103E0
1.237487450E1,-4.595443726E-2,-4.212539978E0,8.573421478E0,9.552547342E0
1.238481350E1,4.188290405E-1,-4.032165070E0,8.206833801E0,9.153463495E0
1.239475250E1,7.306306458E-1,-4.012555847E0,7.871082001E0,8.865007469E0
1.240469150E1,8.921447754E-1,-4.393962708E0,7.101083221E0,8.398107733E0
1.241463050E1,1.028660889E0,-4.961282959E0,6.510112152E0,8.249486775E0
1.242456950E1,9.352551270E-1,-5.406906281E0,6.902146912E0,8.817537619E0
1.243450950E1,5.539979553E-1,-5.742209015E0,7.530839539E0,9.486486297E0
1.244444850E1,1.374142456E-1,-5.963748322E0,7.707921295E0,9.746652113E0
1.245438750E1,3.787124634E-2,-6.049519958E0,7.777975616E0,9.853681071E0
1.246432650E1,2.974314880E-1,-6.219266968E0,7.521858215E0,9.764532663E0
1.247426550E1,6.779402161E-1,-6.435866547E0,7.150330811E0,9.644024670E0
1.248420450E1,1.099763031E0,-6.758595428E0,7.339986420E0,1.003810199E1
1.249414450E1,1.370100861E0,-7.131170654E0,7.580087128E0,1.049707065E1
1.250408350E1,1.702409821E0,-7.657775574E0,8.360264740E0,1.146445605E1
1.251402250E1,1.893562317E0,-7.973768463E0,9.548044739E0,1.258299329E1
1.252396150E1,1.722318420E0,-7.880362701E0,9.279952240E0,1.229569073E1
1.253390050E1,1.327289886E0,-7.662715302E0,8.558452606E0,1.156399651E1
1.254384050E1,1.311722260E0,-7.360942841E0,8.016729126E0,1.096230088E1
1.255377950E1,1.030008087E0,-7.288643188E0,7.598349152E0,1.057923183E1
1.256371850E1,7.107220459E-1,-7.292834473E0,7.294630737E0,1.033935192E1
1.257365750E1,3.802093506E-1,-7.374714203E0,6.970255280E0,1.015457667E1
1.258359650E1,1.866618347E-1,-7.483837280E0,6.689139862E0,1.003928559E1
1.259353550E1,2.398013306E-1,-7.291487274E0,6.587052155E0,9.829168196E0
1.260347550E1,1.531315613E-1,-7.023095398E0,6.316564636E0,9.447026360E0
1.261341450E1,-5.822891235E-2,-7.145391083E0,5.676645355E0,9.126023604E0
1.262335350E1,-6.586303711E-2,-7.285350037E0,5.820346527E0,9.325078916E0
1.263329250E1,-9.291178894E-1,-7.517966309E0,5.930816803E0,9.620689446E0
1.264323150E1,-4.328997803E-1,-7.683222656E0,5.562432861E0,9.495260499E0
1.265317050E1,-1.496887207E-2,-7.688012695E0,5.408702545E0,9.399990771E0
1.266311050E1,5.451663208E-1,-7.620503082E0,5.633834381E0,9.492595187E0
1.267304950E1,5.216651917E-1,-7.779921570E0,5.650150452E0,9.629304977E0
1.268298850E1,2.797682190E-1,-8.111781464E0,5.352868652E0,9.722781062E0
1.269292750E1,3.121009827E-1,-8.446784821E0,5.374124451E0,1.001632639E1
1.270286650E1,4.828958130E-1,-8.403824158E0,5.248236237E0,9.919749616E0
1.271280550E1,9.654922485E-1,-8.359216919E0,4.844974823E0,9.709915747E0
1.272274550E1,1.648821259E0,-8.494385834E0,4.616849213E0,9.807573547E0
1.273268450E1,2.058369598E0,-8.481213226E0,4.561464386E0,9.847579425E0
1.274262350E1,2.396516418E0,-8.329279175E0,4.659510498E0,9.840285595E0
1.275256250E1,2.285148010E0,-8.355175323E0,4.621788940E0,9.817932019E0
1.276250150E1,1.912273407E0,-8.459059296E0,4.618346100E0,9.825558226E0
1.277244150E1,1.606010284E0,-8.392447815E0,4.637655945E0,9.722155215E0
1.278238050E1,1.562450867E0,-8.104746094E0,5.096002808E0,9.700381774E0
1.279231950E1,1.490300903E0,-7.934999084E0,5.685476990E0,9.874707887E0
1.280225850E1,1.431173859E0,-7.808961182E0,6.242019653E0,1.009905653E1
1.281219750E1,1.448238373E0,-7.720195770E0,6.504573669E0,1.019844575E1
1.282213650E1,1.226100311E0,-7.830516357E0,6.615642700E0,1.032409980E1
1.283207650E1,1.498084717E0,-7.795189819E0,6.530020752E0,1.027863868E1
1.284201538E1,1.146465912E0,-7.920778656E0,6.324348450E0,1.020051479E1
1.285195437E1,1.293011169E0,-7.939639435E0,5.665119324E0,9.838868288E0
1.286189337E1,1.934876404E0,-7.869585114E0,5.011428680E0,9.528301736E0
1.287183237E1,2.135459290E0,-8.189020844E0,4.523293762E0,9.595855106E0
1.288177137E1,2.653531952E0,-8.476423187E0,4.013603668E0,9.746794154E0
1.289171137E1,3.171903992E0,-8.698411560E0,3.928131409E0,1.005751236E1
1.290165037E1,3.413351898E0,-8.818162537E0,4.234095154E0,1.036043066E1
1.291158937E1,3.187172241E0,-9.036259003E0,4.594695282E0,1.062653605E1
1.292152838E1,3.044219513E0,-9.009165344E0,5.037175140E0,1.076129481E1
1.293146738E1,2.941533051E0,-8.671766968E0,5.510191498E0,1.068711230E1
1.294140738E1,2.886746979E0,-8.386759644E0,5.667514343E0,1.052576668E1
1.295134638E1,2.542762299E0,-8.499026184E0,5.412295074E0,1.039192110E1
1.296128538E1,2.446811829E0,-8.738977203E0,4.972359924E0,1.034799371E1
1.297122438E1,2.758463745E0,-8.775501251E0,4.632716217E0,1.029954387E1
1.298116338E1,3.023861847E0,-8.831035767E0,4.162244568E0,1.022033331E1
1.299110238E1,3.019670563E0,-8.999435577E0,3.987108765E0,1.029588691E1
1.300104238E1,2.517015839E0,-9.136400757E0,4.282145233E0,1.039932475E1
1.301098138E1,2.020498352E0,-9.048832855E0,4.624782715E0,1.036110056E1
1.302092038E1,1.833986206E0,-8.881331177E0,5.025349731E0,1.036801277E1
1.303085938E1,1.950294342E0,-8.856033783E0,5.182373199E0,1.044461461E1
1.304079838E1,2.070644073E0,-9.004225616E0,4.827311554E0,1.042432649E1
1.305073737E1,2.303559723E0,-9.187294922E0,3.854185181E0,1.022582607E1
1.306067737E1,2.658321991E0,-9.154213715E0,3.151097260E0,1.003970709E1
1.307061637E1,2.955154724E0,-9.285790100E0,2.895578613E0,1.016578638E1
1.308055537E1,2.944975891E0,-9.509724426E0,2.467319183E0,1.025648115E1
1.309049437E1,2.860401764E0,-9.687105560E0,2.218237152E0,1.034130013E1
1.310043337E1,3.053200836E0,-9.620643768E0,2.562970276E0,1.041381959E1
1.311037237E1,2.732866974E0,-9.470955048E0,3.148103485E0,1.034785519E1
1.312031238E1,1.904339905E0,-9.348359985E0,3.410058746E0,1.013147795E1
1.313025138E1,1.288071442E0,-9.136700134E0,3.543581085E0,9.884097546E0
1.314019038E1,9.924362183E-1,-8.826844482E0,3.532953186E0,9.559281949E0
1.315012938E1,8.041278076E-1,-8.629704437E0,3.240311737E0,9.253001695E0
1.316006838E1,6.722520447E-1,-8.582552490E0,2.957849121E0,9.102801848E0
1.317000838E1,6.968009949E-1,-8.669222260E0,2.841840363E0,9.149699605E0
1.317994738E1,1.071920929E0,-8.593629456E0,2.900518341E0,9.133043761E0
1.318988638E1,1.526824951E0,-8.679999847E0,3.407214661E0,9.448952509E0
1.319982538E1,2.096091156E0,-8.767567749E0,4.095034332E0,9.901169050E0
1.320976438E1,2.224224701E0,-8.956025848E0,4.101021881E0,1.009831446E1
1.321970338E1,2.155367889E0,-9.148675232E0,3.714375916E0,1.010645624E1
1.322964338E1,2.261497192E0,-9.206305389E0,3.200045471E0,1.000553444E1
1.323958237E1,2.084714813E0,-9.190288696E0,2.697390747E0,9.802211945E0
1.324952137E1,2.023342438E0,-8.938961334E0,2.995121613E0,9.642079539E0
1.325946037E1,1.739233246E0,-9.010512543E0,3.456761627E0,9.806297442E0
1.326939937E1,1.287023621E0,-9.190588074E0,3.578458557E0,9.946290996E0
1.327933837E1,1.098266144E0,-9.287137299E0,3.599414978E0,1.002062353E1
1.328927837E1,1.236279144E0,-9.458830261E0,3.308719482E0,1.009680547E1
1.329921737E1,1.601220245E0,-9.473200378E0,2.738255768E0,9.990168984E0
1.330915638E1,1.853894806E0,-9.346563721E0,2.301613770E0,9.802683575E0
1.331909538E1,1.949994965E0,-9.165140991E0,2.125280457E0,9.608283237E0
1.332903438E1,1.726958771E0,-8.989705811E0,2.042053528E0,9.379082032E0
1.333897438E1,1.084494781E0,-8.870703278E0,2.124382324E0,9.185777367E0
1.334891338E1,4.671784973E-1,-8.723858643E0,2.466421051E0,9.077841052E0
1.335885238E1,1.372645569E-1,-8.456364899E0,2.860252075E0,8.928045183E0
1.336879138E1,-5.284011841E-2,-8.302784271E0,2.856659546E0,8.780633377E0
1.337873038E1,-6.780899048E-2,-8.455766144E0,2.342628479E0,8.774536303E0
1.338866938E1,4.429289246E-1,-8.432265015E0,1.935924225E0,8.662971887E0
1.339860938E1,8.238867188E-1,-8.558153229E0,1.880689087E0,8.801009457E0
1.340854838E1,1.059646454E0,-8.891659698E0,1.971400452E0,9.169017534E0
1.341848738E1,1.239572296E0,-9.215885468E0,2.058070221E0,9.523903478E0
1.342842638E1,1.344055023E0,-9.330097961E0,2.349065094E0,9.714696016E0
1.343836537E1,1.486259308E0,-9.321715393E0,2.652933197E0,9.805172061E0
1.344830437E1,1.447489929E0,-9.408684540E0,2.581980743E0,9.863325830E0
1.345824437E1,1.390458527E0,-9.587412872E0,2.292183380E0,9.955197896E0
1.346818337E1,1.519789581E0,-9.870324554E0,1.901196442E0,1.016600291E1
1.347812237E1,1.808988190E0,-1.010144394E1,1.882784729E0,1.043343118E1
1.348806137E1,2.021995239E0,-1.026146118E1,2.030527496E0,1.065406459E1
1.349800037E1,2.107766876E0,-1.037193146E1,2.495909729E0,1.087424520E1
1.350793938E1,2.115700378E0,-1.045171555E1,3.062631226E0,1.109478508E1
1.351787938E1,2.070195007E0,-1.047476761E1,3.446133728E0,1.121972823E1
1.352781838E1,2.039359131E0,-1.051727921E1,3.451522522E0,1.125545003E1
1.353775738E1,1.978286133E0,-1.053988220E1,3.156935120E0,1.117895220E1
1.354769638E1,1.903890839E0,-1.048285080E1,2.864742737E0,1.103275633E1
1.355763538E1,1.805096283E0,-1.050620224E1,2.772085419E0,1.101467728E1
1.356757538E1,1.722917175E0,-1.056727524E1,2.747386780E0,1.105368191E1
1.357751438E1,1.699266357E0,-1.045291306E1,3.072660370E0,1.102688257E1
1.358745338E1,1.694775696E0,-1.024948608E1,3.688928833E0,1.102417460E1
1.359739238E1,1.522483978E0,-1.005533981E1,3.945046234E0,1.090830904E1
1.360733138E1,1.149459686E0,-9.872120819E0,4.106859741E0,1.075389808E1
1.361727038E1,7.767347717E-1,-9.668244781E0,4.522994385E0,1.070213774E1
1.362721037E1,5.786965942E-1,-9.550888824E0,4.988675995E0,1.079079493E1
1.363714937E1,1.043480072E0,-9.373657379E0,5.126539307E0,1.073478964E1
1.364708837E1,1.837129669E0,-9.400451660E0,4.695435791E0,1.066727023E1
1.365702737E1,2.421215057E0,-9.783205719E0,4.110302582E0,1.088429988E1
1.366696637E1,2.946472778E0,-1.030023056E1,4.066443787E0,1.145916299E1
1.367690537E1,3.715124359E0,-1.041294617E1,4.898563385E0,1.209245716E1
1.368684537E1,4.129762115E0,-1.052162018E1,5.771098938E0,1.269113901E1
1.369678438E1,3.165766754E0,-1.084644470E1,5.404511261E0,1.252502231E1
1.370672338E1,1.435514832E0,-1.065604065E1,4.619693298E0,1.170271214E1
1.371666238E1,6.280938721E-1,-9.642797699E0,5.275778961E0,1.100962729E1
1.372660138E1,2.630030823E-1,-8.789721680E0,6.366111603E0,1.085613904E1
1.373654038E1,-6.840774536E-2,-8.431366882E0,6.486012268E0,1.063771509E1
1.374648038E1,-3.242257690E-1,-8.160879364E0,5.618865509E0,9.913461754E0
1.375641938E1,-3.617976379E-1,-8.115373993E0,5.161117401E0,9.624309087E0
1.376635838E1,-2.257305908E-1,-8.078101501E0,5.480852509E0,9.764549267E0
1.377629738E1,-2.275268555E-1,-8.181835785E0,5.648653564E0,9.944922945E0
1.378623638E1,-5.968089294E-1,-8.169561310E0,4.970264282E0,9.581306796E0
1.379617638E1,-8.779243469E-1,-7.657625885E0,5.505251770E0,9.471947128E0
1.380611538E1,-5.635780334E-1,-6.949298859E0,6.556964722E0,9.571006279E0
1.381605438E1,-4.989125061E-1,-6.358926544E0,7.520810394E0,9.861412144E0
1.382599337E1,-8.384065247E-1,-5.929619293E0,7.893984375E0,9.908496343E0
1.383593271E1,-1.008901978E0,-5.761668549E0,7.356601868E0,9.398632810E0
1.384587171E1,-1.072519684E0,-5.659880219E0,5.928870850E0,8.266562291E0
1.385581171E1,-1.193168793E0,-5.536836090E0,4.683760071E0,7.349681221E0
1.386575071E1,-1.205892334E0,-5.419929199E0,4.354295197E0,7.056181368E0
1.387568971E1,-1.088087311E0,-5.336851959E0,4.819078674E0,7.272512778E0
1.388562871E1,-8.810678101E-1,-5.354215851E0,6.027665405E0,8.110281012E0
1.389556771E1,-4.050576782E-1,-5.139562225E0,7.945177917E0,9.471273607E0
1.390550671E1,2.303709412E-1,-4.894970856E0,9.748178558E0,1.091058182E1
1.391544671E1,5.641767883E-1,-5.075046387E0,1.060993652E1,1.177476727E1
1.392538571E1,5.465135193E-1,-5.357209625E0,1.064765808E1,1.193193172E1
1.393532471E1,3.992198181E-1,-5.336402893E0,1.041174866E1,1.170645473E1
1.394526371E1,3.632945251E-1,-5.122946777E0,1.017898270E1,1.140123920E1
1.395520271E1,3.317102051E-1,-4.898713074E0,9.763746185E0,1.092877674E1
1.396514171E1,3.046165466E-1,-4.658911743E0,9.524992676E0,1.060772055E1
1.397508171E1,1.631607056E-1,-4.332740021E0,9.613907776E0,1.054639655E1
1.398502071E1,-2.686912537E-1,-3.997586975E0,9.766141205E0,1.055606038E1
1.399495971E1,-8.223898315E-1,-3.682941284E0,9.432485046E0,1.015933835E1
1.400489871E1,-1.403331757E0,-3.566932526E0,8.707692261E0,9.514002952E0
1.401483771E1,-1.646575928E0,-3.489693146E0,8.400680695E0,9.244490612E0
1.402477671E1,-1.453178101E0,-3.261118469E0,8.607550507E0,9.318612879E0
1.403471671E1,-9.987231445E-1,-2.983296204E0,8.606652374E0,9.163622060E0
1.404465571E1,-4.950205994E-1,-2.657274170E0,8.578061829E0,8.993847683E0
1.405459471E1,-1.871109009E-1,-2.402204590E0,8.558452606E0,8.891159002E0
1.406453371E1,-1.686991882E-1,-2.151625671E0,8.984915771E0,9.240490456E0
1.407447271E1,-2.390528870E-1,-1.972597961E0,9.786498871E0,9.986182912E0
1.408441271E1,-2.463876343E-1,-1.938917999E0,1.029514114E1,1.047902863E1
1.409435171E1,-2.844085693E-1,-1.895208893E0,1.024319916E1,1.042093249E1
1.410429071E1,-4.234693909E-1,-1.635349274E0,9.774074707E0,9.918983312E0
1.411422971E1,-7.153623962E-1,-1.442400513E0,9.413474579E0,9.550171006E0
1.412416871E1,-8.065228271E-1,-1.312171326E0,9.125473480E0,9.254541528E0
1.413410771E1,-8.005352783E-1,-1.100212097E0,8.755293274E0,8.860388462E0
1.414404771E1,-8.442443848E-1,-9.672885132E-1,8.358169098E0,8.456204014E0
1.415398671E1,-8.244854736E-1,-1.025218048E0,8.379873962E0,8.482519435E0
1.416392571E1,-8.292755127E-1,-1.119072876E0,8.690328369E0,8.801240205E0
1.417386471E1,-8.454418945E-1,-8.919950867E-1,8.839867401E0,8.924891198E0
1.418380371E1,-1.024319916E0,-6.276448059E-1,9.117240601E0,9.196045099E0
1.419374271E1,-1.356179810E0,-5.905220032E-1,9.637109528E0,9.749965126E0
1.420368271E1,-1.581161957E0,-5.294490051E-1,9.954898682E0,1.009358198E1
1.421362171E1,-1.632654877E0,-4.123924255E-1,9.874665527E0,1.001721761E1
1.422356071E1,-1.526375885E0,-3.010240173E-1,9.445657654E0,9.572924700E0
1.423349971E1,-1.345402222E0,-1.697470093E-1,8.902287598E0,9.004978937E0
1.424343871E1,-1.192270660E0,-7.289840698E-2,8.648116150E0,8.730219725E0
1.425337771E1,-8.187973022E-1,-4.355941772E-2,8.436605988E0,8.476358123E0
1.426331771E1,-5.216651917E-1,-8.652008057E-2,8.686735840E0,8.702815628E0
1.427325671E1,-1.450483704E-1,-6.616241455E-2,9.340276794E0,9.341637281E0
1.428319571E1,1.689985657E-1,9.415420532E-2,1.002615051E1,1.002801673E1
1.429313471E1,2.092648315E-1,2.519261169E-1,1.065858536E1,1.066361573E1
1.430307371E1,-7.589218140E-2,3.194357300E-1,1.085856949E1,1.086353212E1
1.431301271E1,-5.333409119E-1,3.381468201E-1,1.078701828E1,1.080548746E1
1.432295271E1,-9.538165283E-1,4.144880676E-1,1.070109695E1,1.075151349E1
1.433289171E1,-1.283281403E0,5.104385376E-1,1.084674408E1,1.093431369E1
1.434283071E1,-1.668879547E0,4.893324280E-1,1.097203354E1,1.110901099E1
1.435276971E1,-2.011517029E0,4.147874451E-1,1.083851120E1,1.103139041E1
1.436270871E1,-2.157014465E0,3.531156921E-1,1.049931656E1,1.072441375E1
1.437264771E1,-1.985171814E0,2.583627319E-1,1.008213409E1,1.027896329E1
1.438258771E1,-1.383722534E0,2.880010986E-1,9.451046448E0,9.556145229E0
1.439252671E1,-6.596781921E-1,3.671864319E-1,8.963659973E0,8.995398896E0
1.440246571E1,-2.423460388E-1,3.737727356E-1,8.895850983E0,8.906997382E0
1.441240471E1,2.694396973E-2,3.971241760E-1,9.012009430E0,9.020795284E0
1.442234371E1,2.375559998E-1,4.375401306E-1,9.072034607E0,9.085685782E0
1.443228271E1,4.328997803E-1,4.715194702E-1,8.973689117E0,8.996489827E0
1.444222271E1,5.932164001E-1,5.610333252E-1,9.076824646E0,9.113474077E0
1.445216171E1,6.674620056E-1,5.782475281E-1,9.371711426E0,9.413227437E0
1.446210071E1,6.273454285E-1,6.060896301E-1,9.380842438E0,9.421311574E0
1.447203971E1,3.778143311E-1,7.155120850E-1,9.270970917E0,9.306213137E0
1.448197871E1,1.014889526E-1,8.023315430E-1,9.264234924E0,9.299466901E0
1.449191871E1,-8.547225952E-2,8.135581970E-1,9.431287537E0,9.466697790E0
1.450185771E1,-4.116439819E-2,8.346643066E-1,9.506281586E0,9.542942345E0
1.451179671E1,2.050735474E-1,9.226812744E-1,9.480086060E0,9.527089146E0
1.452173571E1,3.647914124E-1,9.662406921E-1,9.357191620E0,9.414017679E0
1.453167471E1,4.273612976E-1,9.503736877E-1,9.157207489E0,9.216306029E0
1.454161371E1,3.345542908E-1,8.768765259E-1,9.043593750E0,9.092162940E0
1.455155371E1,7.214996338E-2,8.563691711E-1,9.088051300E0,9.128595194E0
1.456149271E1,-2.152523804E-1,9.086105347E-1,9.245523834E0,9.292557111E0
1.457143171E1,-4.146377563E-1,9.928852844E-1,9.432035980E0,9.493210647E0
1.458137071E1,-5.186714172E-1,1.099014587E0,9.452243958E0,9.530045589E0
1.459130971E1,-5.194198608E-1,1.174906769E0,9.448801117E0,9.535724695E0
1.460124871E1,-4.439767456E-1,1.222807159E0,9.678872681E0,9.765907488E0
1.461118871E1,-2.918930054E-1,1.304387512E0,1.002136047E1,1.011010851E1
1.462112771E1,-2.068698120E-1,1.383572845E0,1.025457550E1,1.034955978E1
1.463106671E1,-2.531236267E-1,1.409768372E0,1.029588959E1,1.039504020E1
1.464100571E1,-4.320016479E-1,1.364113312E0,1.014006363E1,1.024052347E1
1.465094471E1,-6.947053528E-1,1.152453461E0,1.026789780E1,1.035569842E1
1.466088371E1,-4.580474854E-1,1.714085541E0,1.033615585E1,1.048732638E1
1.467082371E1,-7.568261719E-1,1.350791016E0,1.058374100E1,1.069640106E1
1.468076271E1,-1.362167358E0,6.010002136E-1,1.092622879E1,1.102720167E1
1.469070171E1,-1.506317596E0,6.439608765E-1,1.093071945E1,1.105279630E1
1.470064071E1,-1.196611633E0,8.196954346E-1,1.070483917E1,1.080265531E1
1.471057971E1,-6.060896301E-1,1.070274353E0,1.068897217E1,1.075950546E1
1.472051871E1,2.146536255E-1,1.388063507E0,1.082593735E1,1.091667147E1
1.473045871E1,7.059320068E-1,1.576072540E0,1.107172623E1,1.120559977E1
1.474039771E1,9.797126770E-1,1.734742584E0,1.131107849E1,1.148519331E1
1.475033671E1,1.096469879E0,1.887574768E0,1.131062943E1,1.151935427E1
1.476027571E1,9.235794067E-1,1.931732941E0,1.109867020E1,1.130332125E1
1.477021471E1,7.174580383E-1,1.914967804E0,1.058718384E1,1.078287111E1
1.478015471E1,6.345304871E-1,1.987417145E0,1.027717850E1,1.048679425E1
1.479009371E1,5.867797852E-1,2.220183105E0,1.010324020E1,1.036093558E1
1.480003271E1,7.333250427E-1,2.617007904E0,1.003782623E1,1.039925245E1
1.480997171E1,1.060394897E0,3.051105194E0,1.014141083E1,1.064339672E1
1.481991071E1,1.232836304E0,3.314557343E0,1.015233810E1,1.075063462E1
1.482984971E1,1.344055023E0,3.414699097E0,1.009321106E1,1.073962585E1
1.483979271E1,1.384470978E0,3.523971863E0,9.695787506E0,1.040881516E1
1.484973171E1,1.263372803E0,3.613635406E0,9.187893677E0,9.953484913E0
1.485967071E1,1.152902527E0,3.791615295E0,8.924740906E0,9.765066872E0
1.486960971E1,8.936416626E-1,3.968996429E0,8.866811371E0,9.755607206E0
1.487954871E1,7.565267944E-1,4.269870758E0,8.880133667E0,9.882353112E0
1.488948771E1,8.852590942E-1,4.678670654E0,8.861422577E0,1.005974417E1
1.489942771E1,9.714797974E-1,4.963977356E0,8.702902222E0,1.006604944E1
1.490936671E1,1.120270386E0,5.194198608E0,8.582702179E0,1.009442825E1
1.491930571E1,9.714797974E-1,5.316344604E0,8.397537231E0,9.986286823E0
1.492924471E1,5.641767883E-1,5.254223785E0,7.812104645E0,9.431550351E0
1.493918371E1,3.348536682E-1,5.264252930E0,7.298522644E0,9.005160669E0
1.494912271E1,3.128494263E-1,5.493725739E0,7.160060577E0,9.030247213E0
1.495906271E1,5.278024292E-1,5.799240417E0,7.224576416E0,9.279238612E0
1.496900171E1,9.898915100E-1,6.011049957E0,7.408394165E0,9.591502015E0
1.497894071E1,1.648970947E0,6.153104553E0,7.586972809E0,9.906662265E0
1.498887971E1,2.324216766E0,6.410569153E0,7.723339233E0,1.030278357E1
1.499881871E1,2.571502533E0,6.533313904E0,7.842192078E0,1.052600553E1
1.500875771E1,2.420017548E0,6.604565735E0,7.822732544E0,1.052007214E1
1.501869771E1,1.846859436E0,6.704108734E0,7.269033966E0,1.005956353E1
1.502863671E1,1.118324432E0,6.727460175E0,6.522236938E0,9.436574835E0
1.503857571E1,7.200027466E-1,6.924151154E0,5.901477814E0,9.126319824E0
1.504851471E1,4.200265503E-1,7.103927307E0,5.349276123E0,8.902637841E0
1.505845371E1,5.216651917E-1,7.276518402E0,4.970264282E0,8.827422141E0
1.506839271E1,8.506809998E-1,7.432344360E0,4.740192719E0,8.856231019E0
1.507833271E1,1.143172760E0,7.481591949E0,4.821623383E0,8.973801541E0
1.508827171E1,1.282233582E0,7.558382263E0,4.996310120E0,9.150758450E0
1.509821071E1,1.226848755E0,7.924520874E0,5.109175415E0,9.508252330E0
1.510814971E1,1.295256500E0,8.239316254E0,4.890779572E0,9.668699320E0
1.511808871E1,1.153351593E0,8.281229095E0,4.475692749E0,9.483712396E0
1.512802771E1,7.026388550E-1,8.212222595E0,4.265978851E0,9.280779971E0
1.513796771E1,8.205935669E-1,8.363408203E0,4.364024963E0,9.469143808E0
1.514790671E1,9.779164124E-1,8.411158905E0,4.521647186E0,9.599437896E0
1.515784571E1,1.046324158E0,8.389603729E0,4.622986450E0,9.635987168E0
1.516778471E1,1.377884674E0,8.532107391E0,4.270768890E0,9.640274354E0
1.517772371E1,1.433269501E0,8.482261047E0,3.614683228E0,9.331074363E0
1.518766271E1,1.250649261E0,8.444389801E0,2.888243866E0,9.011869690E0
1.519760271E1,1.056502991E0,8.594377899E0,2.263892212E0,8.950125027E0
1.520754171E1,6.991960144E-1,8.614885254E0,2.009122009E0,8.873651686E0
1.521748071E1,6.215075684E-1,8.644523621E0,2.168690186E0,8.934051567E0
1.522741971E1,5.557942200E-1,8.602760468E0,2.502046967E0,8.976448847E0
1.523735871E1,7.223977661E-1,8.614735565E0,3.301983490E0,9.254113807E0
1.524729771E1,8.747808838E-1,8.743168488E0,4.226461029E0,9.750446637E0
1.525723771E1,7.785310364E-1,8.795858917E0,4.869972839E0,1.008414003E1
1.526717671E1,7.713459778E-1,8.746461639E0,4.945565643E0,1.007740966E1
1.527711571E1,8.303233337E-1,8.616082764E0,4.461023254E0,9.737918027E0
1.528705471E1,8.551716614E-1,8.477770386E0,3.679348755E0,9.281245420E0
1.529699371E1,8.217910767E-1,8.458161163E0,2.862347717E0,8.967099046E0
1.530693371E1,8.945397949E-1,8.676557007E0,2.349514160E0,9.033441190E0
1.531687271E1,7.318281555E-1,8.696166229E0,2.188898163E0,8.997230391E0
1.532681171E1,4.420307922E-1,8.745114441E0,2.069446564E0,8.997501147E0
1.533675071E1,5.807922363E-2,8.871002655E0,2.234253845E0,9.148221223E0
1.534668971E1,-3.736230469E-1,8.914861450E0,2.522554321E0,9.272412262E0
1.535662871E1,-6.484515381E-1,8.936266937E0,2.589165802E0,9.326367767E0
1.536656871E1,-7.696994019E-1,8.939709778E0,2.386337585E0,9.284689287E0
1.537650771E1,-7.321275330E-1,8.961863708E0,2.258054352E0,9.270912647E0
1.538644671E1,-5.845344543E-1,9.093140717E0,1.963167572E0,9.320993270E0
1.539638571E1,-7.243437195E-1,9.011111298E0,1.738784180E0,9.205876985E0
1.540632471E1,-6.174659729E-1,9.042096863E0,1.889520721E0,9.258027245E0
1.541626371E1,-2.915936279E-1,9.177265778E0,2.051334229E0,9.408252022E0
1.542620371E1,-2.694396973E-1,9.202263794E0,2.046693878E0,9.430970921E0
1.543614271E1,-4.625381470E-1,9.100176086E0,2.012864227E0,9.331600545E0
1.544608171E1,-5.336402893E-1,9.101822662E0,2.305505676E0,9.404430028E0
1.545602071E1,-4.869374084E-1,9.212592316E0,2.581980743E0,9.579957713E0
1.546595971E1,-6.725514221E-1,9.214388580E0,2.902164917E0,9.683999356E0
1.547589871E1,-9.952803040E-1,9.352251892E0,3.313659210E0,9.971736845E0
1.548583871E1,-1.190175018E0,9.593999176E0,3.740272064E0,1.036585606E1
1.549577771E1,-1.250200195E0,9.698032837E0,4.093836823E0,1.060067646E1
1.550571671E1,-1.063688049E0,9.727970581E0,4.204456787E0,1.065092957E1
1.551565571E1,-7.424560547E-1,9.598340149E0,4.086951141E0,1.045861101E1
1.552559471E1,-4.646337891E-1,9.552236023E0,3.993695068E0,1.036391325E1
1.553553371E1,-3.179388428E-1,9.553882599E0,3.701951752E0,1.025096115E1
1.554547371E1,-2.462379456E-1,9.504934387E0,3.509901123E0,1.013527586E1
1.555541271E1,-1.486408997E-1,9.633367310E0,3.626808014E0,1.029454206E1
1.556535171E1,-4.312532043E-1,9.643396454E0,3.624862061E0,1.031119292E1
1.557529071E1,-8.102650452E-1,9.608069916E0,3.794459381E0,1.036192352E1
1.558522971E1,-9.415420532E-1,9.743987274E0,3.942651215E0,1.055349648E1
1.559516871E1,-9.737251282E-1,9.791438599E0,3.923191681E0,1.059300918E1
1.560510871E1,-8.634045410E-1,9.762548676E0,3.803440704E0,1.051280102E1
1.561504771E1,-8.936416626E-1,9.643246765E0,3.619922333E0,1.033898647E1
1.562498671E1,-1.043480072E0,9.497150574E0,3.394640808E0,1.013944308E1
1.563492571E1,-1.099463654E0,9.585766296E0,3.234324188E0,1.017627578E1
1.564486471E1,-1.148411865E0,9.630074158E0,3.261417847E0,1.023200980E1
1.565480371E1,-9.981243896E-1,9.803114319E0,3.285368042E0,1.038705665E1
1.566474371E1,-8.499325562E-1,9.867181091E0,3.410657501E0,1.047455167E1
1.567468271E1,-6.539900208E-1,9.823471985E0,3.535946960E0,1.046093809E1
1.568462171E1,-5.824388123E-1,9.667795715E0,3.680097198E0,1.036091812E1
1.569456071E1,-4.114942932E-1,9.597891083E0,3.579356689E0,1.025186008E1
1.570449971E1,-3.140469360E-1,9.511221313E0,3.355572052E0,1.009067987E1
1.571443871E1,-3.764671326E-1,9.461075592E0,2.923271027E0,9.909550563E0
1.572437871E1,-3.022215271E-1,9.405840454E0,2.522105255E0,9.742801826E0
1.573431771E1,-3.582051086E-1,9.236841888E0,2.123484192E0,9.484552920E0
1.574425671E1,-3.733236694E-1,9.138646088E0,1.704056396E0,9.303656866E0
1.575419571E1,-3.743714905E-1,9.108558655E0,1.426533508E0,9.227187688E0
1.576413471E1,-2.655477905E-1,9.117090912E0,1.231189728E0,9.203678095E0
1.577407371E1,-2.766247559E-1,9.086404724E0,9.074130249E-1,9.135790632E0
1.578401371E1,-2.516267395E-1,9.029822388E0,9.011260986E-1,9.078162623E0
1.579395271E1,-1.040336609E-1,9.131311340E0,1.192869415E0,9.209484635E0
1.580389171E1,-1.481918335E-2,9.244925079E0,1.623224487E0,9.386358030E0
1.581383071E1,-6.227050781E-2,9.125922546E0,1.731898499E0,9.289015682E0
1.582376971E1,-3.442840576E-3,9.082512817E0,1.256786499E0,9.169054653E0
1.583370871E1,-1.713935852E-1,8.998836823E0,4.592449951E-1,9.012177644E0
1.584364588E1,-4.189787292E-1,8.941655731E0,-5.899232483E-1,8.970884005E0
1.585358488E1,-7.379653931E-1,8.839568024E0,-1.442849579E0,8.986899948E0
1.586352388E1,-1.220412140E0,8.734187164E0,-1.743424530E0,8.989714139E0
1.587346288E1,-1.663191376E0,8.736282806E0,-1.531165924E0,9.024040775E0
1.588340188E1,-2.046244812E0,8.783734131E0,-8.318202209E-1,9.057208620E0
1.589334087E1,-2.023043060E0,8.950786743E0,-1.941462708E-1,9.178615327E0
1.590328087E1,-1.913321228E0,8.973389740E0,5.977070618E-1,9.194551391E0
1.591321987E1,-1.625918884E0,8.939111023E0,1.353934479E0,9.186101277E0
1.592315887E1,-1.159788208E0,8.901988220E0,1.930236053E0,9.182391528E0
1.593309787E1,-7.355703735E-1,8.805139618E0,2.095193024E0,9.080824922E0
1.594303687E1,-3.323089600E-1,8.483159180E0,2.083068237E0,8.741486841E0
1.595297587E1,2.538720703E-1,8.145760803E0,2.109413452E0,8.418283388E0
1.596291588E1,6.840774536E-1,7.785010986E0,2.264790344E0,8.136561517E0
1.597285488E1,9.035211182E-1,7.532635803E0,2.725382538E0,8.061306503E0
1.598279388E1,7.812254333E-1,7.434290314E0,3.223396912E0,8.140594161E0
1.599273288E1,3.894900513E-1,7.274572449E0,3.932472382E0,8.278613763E0
1.600267188E1,2.315684509E-1,7.091802521E0,4.602628784E0,8.457628430E0
1.601261088E1,4.989125061E-1,6.841073914E0,4.910837860E0,8.435966718E0
1.602255088E1,1.003962250E0,6.454278259E0,5.149142303E0,8.317410325E0
1.603248988E1,1.450184326E0,6.015091553E0,5.163961487E0,8.059209589E0
1.604242888E1,1.592837677E0,5.566923523E0,5.084327087E0,7.705721985E0
1.605236788E1,1.510658569E0,5.083279266E0,5.342540131E0,7.527586098E0
1.606230688E1,1.224902802E0,4.775668945E0,5.659281464E0,7.505655696E0
1.607224588E1,1.036295013E0,4.863536224E0,5.876180420E0,7.697882065E0
1.608218587E1,9.584568787E-1,4.997956696E0,6.865622864E0,8.546051019E0
1.609212487E1,4.424798584E-1,4.589306488E0,7.996970215E0,9.230875098E0
1.610206387E1,-3.251239014E-1,4.350552979E0,8.813372498E0,9.834050618E0
1.611200287E1,-1.150208130E0,4.234544220E0,9.486223297E0,1.045192690E1
1.612194187E1,-1.575024719E0,4.446503448E0,9.701026611E0,1.078712256E1
1.613188087E1,-1.698667603E0,4.785548401E0,9.979747009E0,1.119742361E1
1.614182087E1,-1.675914917E0,4.846172333E0,9.951455841E0,1.119488948E1
1.615175988E1,-1.982028351E0,4.350552979E0,9.741891632E0,1.085173720E1
1.616169888E1,-2.312690735E0,3.635489960E0,9.808952179E0,1.071358337E1
1.617163788E1,-2.417173462E0,3.014281769E0,9.712852020E0,1.045313907E1
1.618157688E1,-2.145039368E0,2.667602692E0,9.938582611E0,1.051155185E1
1.619151588E1,-1.610351257E0,2.569257202E0,1.092443253E1,1.133743974E1
1.620145588E1,-1.389710083E0,2.335293732E0,1.224723175E1,1.254510169E1
1.621139488E1,-1.313069458E0,2.244133301E0,1.311572571E1,1.337095907E1
1.622133388E1,-9.762698364E-1,2.424208832E0,1.320329361E1,1.345945220E1
1.623127288E1,-1.034498749E0,2.131717072E0,1.301244049E1,1.322641345E1
1.624121188E1,-1.213376770E0,1.418150940E0,1.272159531E1,1.285777673E1
1.625115088E1,-6.765930176E-1,1.655108185E0,1.222028778E1,1.235040868E1
1.626109088E1,-7.420069885E-1,1.955084381E0,1.101798798E1,1.121467736E1
1.627102988E1,-1.235231323E0,1.537303162E0,1.036010605E1,1.054613174E1
1.628096887E1,-1.487456818E0,1.066681824E0,1.028047165E1,1.044214706E1
1.629090787E1,-1.486858063E0,1.106049957E0,9.796078949E0,9.969817259E0
1.630084687E1,-1.446292419E0,1.200353851E0,9.486522675E0,9.670921548E0
1.631078587E1,-1.144070892E0,1.155297546E0,9.583970032E0,9.720910050E0
1.632072587E1,-6.509962463E-1,1.108295288E0,9.378746796E0,9.466414634E0
1.633066487E1,-3.610491943E-1,9.213340759E-1,9.165739746E0,9.219002012E0
1.634060387E1,-2.363584900E-1,6.491999817E-1,9.575587463E0,9.600479218E0
1.635054288E1,-1.573228455E-1,5.671705627E-1,1.026460464E1,1.028146592E1
1.636048188E1,-2.800675964E-1,7.629634094E-1,1.089614136E1,1.092641055E1
1.637042088E1,-4.267625427E-1,1.083147583E0,1.126826752E1,1.132824734E1
1.638036088E1,-6.357279968E-1,1.432521057E0,1.142379410E1,1.153079955E1
1.639029988E1,-8.422984314E-1,1.604513397E0,1.130868347E1,1.145295821E1
1.640023888E1,-9.792636108E-1,1.448088684E0,1.111319000E1,1.124984045E1
1.641017788E1,-7.185058594E-1,1.086291046E0,1.098595459E1,1.106288738E1
1.642011688E1,-1.387614441E-1,6.119274902E-1,1.036549484E1,1.038446885E1
1.643005588E1,-1.091679840E0,-2.619552612E-2,9.343719635E0,9.407313522E0
1.643999588E1,-1.878294067E0,-4.420307922E-1,9.430988159E0,9.626365746E0
1.644993488E1,-2.261497192E0,-7.038363647E-1,9.723180542E0,1.000749694E1
1.645987388E1,-2.455793152E0,-8.340655518E-1,9.670639801E0,1.001238531E1
1.646981288E1,-2.330204315E0,-8.479866028E-1,9.838889923E0,1.014656042E1
